code;group;session;block;trial;enc;resp;confidence;points;scale;rt;posold;old;new
AD0210;forcedguess;0;0;0;1;4;4;5;high;6327;right;SUCHE;PASS
AD0210;forcedguess;0;0;1;1;0;5;9;high;2062;left;GÖNNER;WIMPER
AD0210;forcedguess;0;0;2;1;1;4;5;high;7438;left;KÄFER;RESULTAT
AD0210;forcedguess;0;0;3;1;0;5;9;high;3062;left;LEGENDE;SONATE
AD0210;forcedguess;0;0;4;1;3;3;1;high;2187;right;VENTIL;GEBET
AD0210;forcedguess;0;0;5;0;3;3;0;high;2391;none;ZUGANG;KORB
AD0210;forcedguess;0;0;6;4;0;5;9;high;1640;left;PIRAT;MACHER
AD0210;forcedguess;0;0;7;1;1;1;-5;high;2859;right;RENDITE;WANDLUNG
AD0210;forcedguess;0;0;8;4;0;5;9;high;2532;left;SÄULE;RUNDWEG
AD0210;forcedguess;0;0;9;0;3;3;0;high;3108;none;ANSCHEIN;BERATUNG
AD0210;forcedguess;0;0;10;4;5;5;9;high;2625;right;HAUT;FAHRT
AD0210;forcedguess;0;0;11;4;2;2;-1;high;3281;right;KÄUFER;GONDEL
AD0210;forcedguess;0;0;12;0;5;5;0;high;2281;none;MASSE;SCHNECKE
AD0210;forcedguess;0;0;13;1;2;2;-1;high;1718;right;EBENE;VERB
AD0210;forcedguess;0;0;14;4;1;4;5;high;2343;left;KABEL;ANTEIL
AD0210;forcedguess;0;0;15;0;3;3;0;high;2483;none;HÄNGER;ETIKETT
AD0210;forcedguess;0;0;16;1;1;1;-5;high;2734;right;SOLO;KÖNIG
AD0210;forcedguess;0;0;17;1;1;4;5;high;3328;left;PERÜCKE;HAUBE
AD0210;forcedguess;0;0;18;4;2;2;-1;high;2875;right;BECHER;TABELLE
AD0210;forcedguess;0;0;19;4;0;5;9;high;1406;left;SCHWEIN;POLIZIST
AD0210;forcedguess;0;0;20;1;3;2;-1;high;2031;left;BRONZE;TASTE
AD0210;forcedguess;0;0;21;4;5;5;9;high;1844;right;APOTHEKE;UNSINN
AD0210;forcedguess;0;0;22;1;5;5;9;high;1782;right;KAMEL;SITZUNG
AD0210;forcedguess;0;0;23;1;0;0;-9;high;2467;right;FROSCH;ZEICHEN
AD0210;forcedguess;0;0;24;4;0;5;9;high;1593;left;UMFRAGE;PRINZ
AD0210;forcedguess;0;0;25;4;2;3;1;high;2156;left;AUSDRUCK;HOTEL
AD0210;forcedguess;0;0;26;4;0;5;9;high;1358;left;ZWIEBEL;VISUM
AD0210;forcedguess;0;0;27;4;3;3;1;high;2250;right;BESTECK;PLANUNG
AD0210;forcedguess;0;0;28;0;3;3;0;high;2328;none;STAFFEL;PULT
AD0210;forcedguess;0;0;29;1;4;1;-5;high;2906;left;LAUF;SERIE
AD0210;forcedguess;0;0;30;4;5;5;9;high;1781;right;TRICK;PAPRIKA
AD0210;forcedguess;0;0;31;1;5;5;9;high;1609;right;MÖNCH;WURZEL
AD0210;forcedguess;0;0;32;1;2;2;-1;high;1641;right;ETAGE;PATRONE
AD0210;forcedguess;0;0;33;4;0;0;-9;high;1500;right;ERLÖS;STOCK
AD0210;forcedguess;0;0;34;4;2;2;-1;high;1828;right;DEUTUNG;STEMPEL
AD0210;forcedguess;0;0;35;1;5;5;9;high;1608;right;ELCH;TECHNIK
AD0210;forcedguess;0;0;36;1;2;3;1;high;2641;left;ANSPRUCH;SCHNUR
AD0210;forcedguess;0;0;37;1;4;4;5;high;2406;right;ANTLITZ;PHASE
AD0210;forcedguess;0;0;38;4;0;5;9;high;1344;left;DIESEL;DATUM
AD0210;forcedguess;0;0;39;4;0;5;9;high;1141;left;SYNTHESE;ZIGARRE
AD0210;forcedguess;0;0;40;1;1;1;-5;high;2125;right;BESTAND;SCHICHT
AD0210;forcedguess;0;0;41;1;0;0;-9;high;2562;right;REDNER;HÜTER
AD0210;forcedguess;0;0;42;1;3;2;-1;high;2078;left;STALL;PALETTE
AD0210;forcedguess;0;0;43;4;5;5;9;high;1562;right;WARTUNG;HUHN
AD0210;forcedguess;0;0;44;1;0;5;9;high;1578;left;PERIODE;PLANET
AD0210;forcedguess;0;0;45;0;0;0;0;high;2219;none;ERHÖHUNG;EINKAUF
AD0210;forcedguess;0;0;46;4;1;4;5;high;2015;left;STÜTZE;BOHNE
AD0210;forcedguess;0;0;47;0;2;2;0;high;1983;none;BLOCK;VERKAUF
AD0210;forcedguess;0;0;48;0;3;3;0;high;3422;none;QUADRAT;REPTIL
AD0210;forcedguess;0;0;49;1;0;5;9;high;1328;left;SKELETT;PFEIL
AD0210;forcedguess;0;0;50;4;5;5;9;high;1437;right;DAMPFER;HERD
AD0210;forcedguess;0;0;51;1;1;1;-5;high;1703;right;DOZENT;KISTE
AD0210;forcedguess;0;0;52;0;3;3;0;high;2641;none;DAMM;SCHOTTER
AD0210;forcedguess;0;0;53;4;0;5;9;high;1437;left;WERTUNG;ÄNDERUNG
AD0210;forcedguess;0;0;54;1;4;4;5;high;1937;right;GANG;SPEKTRUM
AD0210;forcedguess;0;0;55;4;5;5;9;high;1781;right;KLOSTER;KAMMER
AD0210;forcedguess;0;0;56;4;1;1;-5;high;2172;right;REGAL;GERÄT
AD0210;forcedguess;0;0;57;1;3;3;1;high;3109;right;KAMM;SCHNITT
AD0210;forcedguess;0;0;58;1;4;4;5;high;2187;right;RAND;KOCHTOPF
AD0210;forcedguess;0;0;59;1;3;2;-1;high;1906;left;SAMMLER;LÜCKE
AD0210;forcedguess;0;0;60;1;2;2;-1;high;1342;right;VERMERK;INSTANZ
AD0210;forcedguess;0;0;61;4;2;2;-1;high;2312;right;AUSÜBUNG;FORMAT
AD0210;forcedguess;0;0;62;1;3;2;-1;high;1687;left;ABRUF;FREQUENZ
AD0210;forcedguess;0;0;63;4;0;5;9;high;1390;left;GEMÜT;KUPPE
AD0210;forcedguess;0;0;64;4;2;3;1;high;1797;left;DECKUNG;ANLAGE
AD0210;forcedguess;0;0;65;4;0;5;9;high;1390;left;JÜNGER;AUFSATZ
AD0210;forcedguess;0;0;66;1;0;5;9;high;2468;left;MATRIX;HÄNDLER
AD0210;forcedguess;0;0;67;0;2;2;0;high;2016;none;SCHUPPEN;MÖBEL
AD0210;forcedguess;0;0;68;0;2;2;0;high;2641;none;KLIMA;ECKE
AD0210;forcedguess;0;0;69;1;3;2;-1;high;1358;left;PLAKAT;OBJEKT
AD0210;forcedguess;0;0;70;4;1;4;5;high;2312;left;TRIKOT;WINTER
AD0210;forcedguess;0;0;71;0;3;3;0;high;1467;none;STROPHE;DACH
AD0210;forcedguess;0;0;72;4;1;1;-5;high;2375;right;FORMEL;BAUER
AD0210;forcedguess;0;0;73;1;3;2;-1;high;1437;left;TINTE;MUSTER
AD0210;forcedguess;0;0;74;4;1;4;5;high;4359;left;GEREDE;EINHEIT
AD0210;forcedguess;0;0;75;4;2;2;-1;high;1797;right;ZUSTAND;FLÖTE
AD0210;forcedguess;0;0;76;4;1;4;5;high;1750;left;KURS;UMBAU
AD0210;forcedguess;0;0;77;4;2;2;-1;high;1985;right;BECKEN;SCHANZE
AD0210;forcedguess;0;0;78;0;2;2;0;high;1343;none;ENDUNG;FOSSIL
AD0210;forcedguess;0;0;79;0;3;3;0;high;1234;none;EISEN;DING
AD0210;forcedguess;0;0;80;0;3;3;0;high;1281;none;PFLAUME;KASSETTE
AD0210;forcedguess;0;0;81;0;3;3;0;high;2469;none;STOFF;GARDINE
AD0210;forcedguess;0;0;82;0;3;3;0;high;1406;none;ZEUG;SCHUB
AD0210;forcedguess;0;0;83;4;1;4;5;high;1781;left;SPATEN;VORNAME
AD0210;forcedguess;0;0;84;1;4;1;-5;high;1734;left;MAGAZIN;PYRAMIDE
AD0210;forcedguess;0;0;85;1;3;2;-1;high;1219;left;HALLE;BOHRER
AD0210;forcedguess;0;0;86;1;3;2;-1;high;1141;left;ANGEL;STRAUCH
AD0210;forcedguess;0;0;87;4;3;3;1;high;1421;right;SCHEMA;MATERIAL
AD0210;forcedguess;0;0;88;0;3;3;0;high;1437;none;NAGEL;DAMPF
AD0210;forcedguess;0;0;89;4;5;5;9;high;1485;right;PHANTOM;MASKE
AD0210;forcedguess;0;1;0;4;1;1;-2;low;3389;right;HOLZ;FLÄCHE
AD0210;forcedguess;0;1;1;4;0;5;3;low;1266;left;NONNE;TASSE
AD0210;forcedguess;0;1;2;4;0;5;3;low;1703;left;ZEIGER;ZWERG
AD0210;forcedguess;0;1;3;4;2;2;-1;low;2000;right;KOPPEL;PRAXIS
AD0210;forcedguess;0;1;4;4;3;3;1;low;2015;right;FASS;SPRECHER
AD0210;forcedguess;0;1;5;1;1;4;2;low;2093;left;GESCHIRR;ZUNGE
AD0210;forcedguess;0;1;6;1;3;3;1;low;1687;right;ZAHN;MÜTZE
AD0210;forcedguess;0;1;7;4;2;3;1;low;1983;left;KARTON;EINGABE
AD0210;forcedguess;0;1;8;0;2;2;0;low;1812;none;GABEL;BETRAG
AD0210;forcedguess;0;1;9;1;2;2;-1;low;1812;right;KÄSE;SCHIRM
AD0210;forcedguess;0;1;10;4;3;2;-1;low;2891;left;MITTAG;LOCKE
AD0210;forcedguess;0;1;11;1;4;1;-2;low;2187;left;TURM;WAGEN
AD0210;forcedguess;0;1;12;4;5;0;-3;low;1812;left;KUPPLUNG;MOTOR
AD0210;forcedguess;0;1;13;4;2;2;-1;low;1625;right;POSITION;EXEMPLAR
AD0210;forcedguess;0;1;14;1;1;4;2;low;1625;left;TELLER;PROGNOSE
AD0210;forcedguess;0;1;15;1;5;5;3;low;1780;right;OPIUM;SCHÜRZE
AD0210;forcedguess;0;1;16;1;5;5;3;low;2203;right;ERSATZ;ANHANG
AD0210;forcedguess;0;1;17;4;1;4;2;low;2202;left;WEISUNG;ANHÄNGER
AD0210;forcedguess;0;1;18;4;5;5;3;low;1719;right;MONITOR;GEBIET
AD0210;forcedguess;0;1;19;1;4;1;-2;low;2687;left;FRUCHT;ROUTE
AD0210;forcedguess;0;1;20;1;2;3;1;low;1421;left;GLOCKE;KLAMMER
AD0210;forcedguess;0;1;21;4;2;2;-1;low;1405;right;WERBER;STADIUM
AD0210;forcedguess;0;1;22;1;2;2;-1;low;1719;right;BEZUG;WESEN
AD0210;forcedguess;0;1;23;4;2;2;-1;low;2562;right;HÖHLE;LEBER
AD0210;forcedguess;0;1;24;1;2;2;-1;low;1266;right;REZEPT;STIFTUNG
AD0210;forcedguess;0;1;25;1;5;5;3;low;1469;right;NADEL;FOLIE
AD0210;forcedguess;0;1;26;1;2;2;-1;low;5516;right;MAPPE;GEHIRN
AD0210;forcedguess;0;1;27;4;4;1;-2;low;3156;left;KURIER;SCHNAPS
AD0210;forcedguess;0;1;28;4;0;5;3;low;2000;left;PRÄDIKAT;NATION
AD0210;forcedguess;0;1;29;4;5;5;3;low;1562;right;FLEISCH;BLUSE
AD0210;forcedguess;0;1;30;4;2;3;1;low;1250;left;MÜHLE;VORGANG
AD0210;forcedguess;0;1;31;4;0;5;3;low;1203;left;TAGEBUCH;SKIZZE
AD0210;forcedguess;0;1;32;1;0;5;3;low;2094;left;HAUSHALT;REIGEN
AD0210;forcedguess;0;1;33;1;2;3;1;low;1328;left;ARCHIV;EIGNUNG
AD0210;forcedguess;0;1;34;1;2;3;1;low;1828;left;ZUCHT;STANGE
AD0210;forcedguess;0;1;35;0;2;2;0;low;1609;none;NIERE;ZUSATZ
AD0210;forcedguess;0;1;36;1;2;3;1;low;1782;left;SCHRIFT;KOFFER
AD0210;forcedguess;0;1;37;0;2;2;0;low;1516;none;TRANSFER;PFEIFE
AD0210;forcedguess;0;1;38;1;2;2;-1;low;1328;right;WAPPEN;BUND
AD0210;forcedguess;0;1;39;1;2;2;-1;low;1437;right;FAHRER;IMBISS
AD0210;forcedguess;0;1;40;1;4;4;2;low;3687;right;UMSATZ;AKTIONÄR
AD0210;forcedguess;0;1;41;1;2;3;1;low;1233;left;ULME;RICHTER
AD0210;forcedguess;0;1;42;4;5;5;3;low;1671;right;STRUMPF;PUPPE
AD0210;forcedguess;0;1;43;1;2;2;-1;low;1156;right;EINTRAG;VERSUCH
AD0210;forcedguess;0;1;44;1;0;5;3;low;1500;left;MEHL;RESERVE
AD0210;forcedguess;0;1;45;4;1;1;-2;low;1983;right;SEHNE;KUGEL
AD0210;forcedguess;0;1;46;4;2;2;-1;low;1077;right;BEFUGNIS;LISTE
AD0210;forcedguess;0;1;47;0;2;2;0;low;1328;none;GALA;SALZ
AD0210;forcedguess;0;1;48;4;2;3;1;low;1343;left;KRAUT;BOTE
AD0210;forcedguess;0;1;49;4;4;1;-2;low;3000;left;ONKEL;PEGEL
AD0210;forcedguess;0;1;50;0;2;2;0;low;1233;none;FINGER;SCHRANK
AD0210;forcedguess;0;1;51;4;0;5;3;low;2656;left;SYMBOL;SCHEITEL
AD0210;forcedguess;0;1;52;1;0;5;3;low;1360;left;NUMMER;LEHNE
AD0210;forcedguess;0;1;53;4;2;2;-1;low;1187;right;SIEDLUNG;SCHLAMM
AD0210;forcedguess;0;1;54;4;5;5;3;low;3469;right;WINKEL;WÄHRUNG
AD0210;forcedguess;0;1;55;4;2;3;1;low;1671;left;STROM;VORHANG
AD0210;forcedguess;0;1;56;4;2;3;1;low;2250;left;MATERIE;BASS
AD0210;forcedguess;0;1;57;1;2;3;1;low;1093;left;ARBEITER;CHRIST
AD0210;forcedguess;0;1;58;1;1;4;2;low;3422;left;WERBUNG;STATUS
AD0210;forcedguess;0;1;59;1;2;3;1;low;1812;left;BEIN;OPTIK
AD0210;forcedguess;0;1;60;1;2;3;1;low;1250;left;EIMER;FÜRST
AD0210;forcedguess;0;1;61;0;2;2;0;low;1608;none;GUNST;ANSATZ
AD0210;forcedguess;0;1;62;1;2;2;-1;low;1405;right;SCHWAMM;INHALT
AD0210;forcedguess;0;1;63;1;2;2;-1;low;1358;right;TRAKTOR;FUCHS
AD0210;forcedguess;0;1;64;0;2;2;0;low;1312;none;BESCHEID;BUDE
AD0210;forcedguess;0;1;65;0;2;2;0;low;2358;none;SEKUNDE;PHRASE
AD0210;forcedguess;0;1;66;0;2;2;0;low;1156;none;LEUCHTE;HÜRDE
AD0210;forcedguess;0;1;67;0;2;2;0;low;1172;none;KLEBER;PINSEL
AD0210;forcedguess;0;1;68;1;2;3;1;low;1157;left;RADIO;STUDIE
AD0210;forcedguess;0;1;69;0;2;2;0;low;1077;none;BRUT;KNIE
AD0210;forcedguess;0;1;70;1;2;2;-1;low;1375;right;SATZ;KLAMOTTE
AD0210;forcedguess;0;1;71;0;2;2;0;low;1657;none;KRAGEN;GELÄNDE
AD0210;forcedguess;0;1;72;4;2;2;-1;low;1266;right;BAHNHOF;OSTEN
AD0210;forcedguess;0;1;73;0;4;4;0;low;1657;none;COMPUTER;STIFT
AD0210;forcedguess;0;1;74;4;4;4;2;low;2657;right;MEDIUM;HANDEL
AD0210;forcedguess;0;1;75;4;5;5;3;low;1969;right;WADE;REGIE
AD0210;forcedguess;0;1;76;0;2;2;0;low;1266;none;KRIPPE;GELENK
AD0210;forcedguess;0;1;77;0;2;2;0;low;1358;none;TOPF;GÜRTEL
AD0210;forcedguess;0;1;78;1;2;2;-1;low;968;right;HÜGEL;HOSE
AD0210;forcedguess;0;1;79;1;1;1;-2;low;1796;right;LOCHER;KANDIDAT
AD0210;forcedguess;0;1;80;4;2;3;1;low;1358;left;SCHALTER;BEGRIFF
AD0210;forcedguess;0;1;81;1;2;3;1;low;1407;left;KERL;SYSTEM
AD0210;forcedguess;0;1;82;0;2;2;0;low;1187;none;BUCHUNG;HORN
AD0210;forcedguess;0;1;83;4;5;5;3;low;2421;right;MANDANT;ELLBOGEN
AD0210;forcedguess;0;1;84;4;2;3;1;low;2094;left;BAUWERK;FARM
AD0210;forcedguess;0;1;85;4;1;4;2;low;1890;left;KLINGEL;DIAKONIE
AD0210;forcedguess;0;1;86;0;2;2;0;low;1233;none;FASSUNG;KANNE
AD0210;forcedguess;0;1;87;0;1;1;0;low;2266;none;RADLER;WACHE
AD0210;forcedguess;0;1;88;1;2;2;-1;low;1296;right;METALL;PEDAL
AD0210;forcedguess;0;1;89;4;2;2;-1;low;1905;right;LÖFFEL;TRACHT
AD0210;forcedguess;0;2;0;0;2;2;0;high;4187;none;PRIESTER;MATROSE
AD0210;forcedguess;0;2;1;0;2;2;0;high;1390;none;SEIL;ANKER
AD0210;forcedguess;0;2;2;0;2;2;0;high;1015;none;VOTUM;ANZEIGE
AD0210;forcedguess;0;2;3;0;2;2;0;high;937;none;MÄHNE;KÜBEL
AD0210;forcedguess;0;2;4;1;2;3;1;high;1250;left;WAND;LEIB
AD0210;forcedguess;0;2;5;1;2;2;-1;high;2671;right;MAST;ZIFFER
AD0210;forcedguess;0;2;6;4;5;5;9;high;2218;right;MOTORRAD;METHODE
AD0210;forcedguess;0;2;7;1;2;3;1;high;1687;left;GEBÄUDE;DIALOG
AD0210;forcedguess;0;2;8;0;2;2;0;high;1344;none;AUSZUG;APPARAT
AD0210;forcedguess;0;2;9;4;4;1;-5;high;1639;left;LINIE;HANDWERK
AD0210;forcedguess;0;2;10;1;2;2;-1;high;1062;right;SORTE;REST
AD0210;forcedguess;0;2;11;1;2;3;1;high;1030;left;TEXT;GREMIUM
AD0210;forcedguess;0;2;12;4;2;3;1;high;1375;left;HEBEL;JUNGE
AD0210;forcedguess;0;2;13;1;4;4;5;high;1812;right;TANK;TUCH
AD0210;forcedguess;0;2;14;1;2;3;1;high;1233;left;AUSKUNFT;HAMSTER
AD0210;forcedguess;0;2;15;4;2;3;1;high;1139;left;SUBSTANZ;SOCKEL
AD0210;forcedguess;0;2;16;4;2;3;1;high;1328;left;MERKMAL;NICKEL
AD0210;forcedguess;0;2;17;4;2;3;1;high;1484;left;PRODUKT;ANBAU
AD0210;forcedguess;0;2;18;1;2;2;-1;high;1172;right;AUSSCHAU;TARIF
AD0210;forcedguess;0;2;19;1;0;0;-9;high;1483;right;EICHE;STROH
AD0210;forcedguess;0;2;20;0;2;2;0;high;1250;none;PILZ;FISCHER
AD0210;forcedguess;0;2;21;0;2;2;0;high;1500;none;PRISE;DORF
AD0210;forcedguess;0;2;22;1;2;2;-1;high;3421;right;SPANGE;ORGAN
AD0210;forcedguess;0;2;23;4;2;2;-1;high;1609;right;KELLER;TRANSIT
AD0210;forcedguess;0;2;24;0;2;2;0;high;1203;none;ABSICHT;VORTRAG
AD0210;forcedguess;0;2;25;0;2;2;0;high;1171;none;PACKUNG;NASE
AD0210;forcedguess;0;2;26;4;2;3;1;high;1389;left;LEITUNG;LATTE
AD0210;forcedguess;0;2;27;1;2;2;-1;high;1062;right;PLATTE;SITZ
AD0210;forcedguess;0;2;28;4;2;2;-1;high;1217;right;GETREIDE;AUTOMAT
AD0210;forcedguess;0;2;29;4;2;3;1;high;1546;left;NORM;MALER
AD0210;forcedguess;0;2;30;4;2;2;-1;high;2360;right;MOTTO;BEWOHNER
AD0210;forcedguess;0;2;31;4;2;3;1;high;3327;left;SITTE;SEGEL
AD0210;forcedguess;0;2;32;1;2;2;-1;high;1031;right;TAXI;PFÜTZE
AD0210;forcedguess;0;2;33;1;5;0;-9;high;1797;left;GLAUBE;WAAGE
AD0210;forcedguess;0;2;34;4;2;3;1;high;1203;left;ZETTEL;NOTIZ
AD0210;forcedguess;0;2;35;1;2;2;-1;high;1157;right;STAUB;REPORTER
AD0210;forcedguess;0;2;36;1;2;2;-1;high;1016;right;PREDIGT;DRESSUR
AD0210;forcedguess;0;2;37;4;2;2;-1;high;1328;right;ANZUG;KNOPF
AD0210;forcedguess;0;2;38;0;2;2;0;high;1141;none;TENNIS;LUNGE
AD0210;forcedguess;0;2;39;1;4;1;-5;high;2312;left;FLASCHE;MAGNET
AD0210;forcedguess;0;2;40;4;2;3;1;high;1000;left;ZUCKER;TAKT
AD0210;forcedguess;0;2;41;4;0;0;-9;high;1485;right;BIRNE;HIRTE
AD0210;forcedguess;0;2;42;4;2;2;-1;high;1030;right;SEKRETÄR;GARDE
AD0210;forcedguess;0;2;43;4;2;2;-1;high;1342;right;WURF;WAHRUNG
AD0210;forcedguess;0;2;44;1;2;2;-1;high;1202;right;SCHMUCK;BODEN
AD0210;forcedguess;0;2;45;4;2;3;1;high;1062;left;SÄGE;VENE
AD0210;forcedguess;0;2;46;0;2;2;0;high;1469;none;PFLICHT;KUPFER
AD0210;forcedguess;0;2;47;4;2;2;-1;high;1155;right;EPOCHE;DRAHT
AD0210;forcedguess;0;2;48;4;2;2;-1;high;1093;right;ABFLUSS;LADUNG
AD0210;forcedguess;0;2;49;4;2;2;-1;high;1265;right;LIMIT;ARGUMENT
AD0210;forcedguess;0;2;50;1;2;2;-1;high;1452;right;KURVE;TENDENZ
AD0210;forcedguess;0;2;51;4;2;3;1;high;1376;left;PFANNE;HAAR
AD0210;forcedguess;0;2;52;1;2;3;1;high;1780;left;LAUFBAHN;MELDUNG
AD0210;forcedguess;0;2;53;0;2;2;0;high;1250;none;ROHR;BRIEF
AD0210;forcedguess;0;2;54;4;2;3;1;high;1328;left;RANG;MAGEN
AD0210;forcedguess;0;2;55;1;2;2;-1;high;1281;right;GURT;ZIRKUS
AD0210;forcedguess;0;2;56;0;2;2;0;high;1984;none;HÄLFTE;INDEX
AD0210;forcedguess;0;2;57;4;1;4;5;high;1610;left;IMPORT;JACKE
AD0210;forcedguess;0;2;58;1;2;3;1;high;1062;left;LABOR;SCHRAUBE
AD0210;forcedguess;0;2;59;0;2;2;0;high;1203;none;BISCHOF;AKTEUR
AD0210;forcedguess;0;2;60;1;2;3;1;high;1562;left;FRAGMENT;BETREFF
AD0210;forcedguess;0;2;61;4;4;1;-5;high;2078;left;VETTER;SCHÄDEL
AD0210;forcedguess;0;2;62;1;2;2;-1;high;1093;right;AUFNAHME;HAHN
AD0210;forcedguess;0;2;63;4;2;2;-1;high;1672;right;THERAPIE;PFARRER
AD0210;forcedguess;0;2;64;1;2;3;1;high;1108;left;LENKER;ZAUN
AD0210;forcedguess;0;2;65;1;2;3;1;high;1280;left;ZITAT;VOLK
AD0210;forcedguess;0;2;66;1;2;3;1;high;1750;left;MOLEKÜL;HEFT
AD0210;forcedguess;0;2;67;1;2;2;-1;high;1516;right;AUFTRAG;RELIGION
AD0210;forcedguess;0;2;68;4;2;3;1;high;1344;left;HINSICHT;TREPPE
AD0210;forcedguess;0;2;69;4;2;2;-1;high;1655;right;SPIRALE;KERN
AD0210;forcedguess;0;2;70;4;2;2;-1;high;1531;right;PLAN;ANFRAGE
AD0210;forcedguess;0;2;71;1;2;3;1;high;1719;left;RUDER;OPTION
AD0210;forcedguess;0;2;72;4;2;2;-1;high;1860;right;BÜNDNIS;PRINZIP
AD0210;forcedguess;0;2;73;1;2;2;-1;high;1297;right;VERBAND;RÜSTUNG
AD0210;forcedguess;0;2;74;1;2;3;1;high;1062;left;KIES;GEHORSAM
AD0210;forcedguess;0;2;75;1;2;3;1;high;1360;left;GESTEIN;BERUF
AD0210;forcedguess;0;2;76;1;2;3;1;high;1593;left;MISCHUNG;SEGEN
AD0210;forcedguess;0;2;77;1;2;2;-1;high;1750;right;KORALLE;KANZLER
AD0210;forcedguess;0;2;78;0;2;2;0;high;1421;none;EPISODE;KARTE
AD0210;forcedguess;0;2;79;4;2;3;1;high;5203;left;GNADE;VERSION
AD0210;forcedguess;0;2;80;1;2;2;-1;high;1217;right;GALERIE;BERG
AD0210;forcedguess;0;2;81;0;4;4;0;high;2171;none;WANNE;BASIS
AD0210;forcedguess;0;2;82;4;2;3;1;high;1046;left;STIRN;ALGE
AD0210;forcedguess;0;2;83;1;2;3;1;high;1327;left;WIEGE;HALTUNG
AD0210;forcedguess;0;2;84;4;2;2;-1;high;1328;right;SAAT;KUNDE
AD0210;forcedguess;0;2;85;0;2;2;0;high;1358;none;KLINKE;MARKE
AD0210;forcedguess;0;2;86;0;2;2;0;high;1219;none;KORN;KETTE
AD0210;forcedguess;0;2;87;4;2;2;-1;high;1437;right;WURST;MANTEL
AD0210;forcedguess;0;2;88;4;2;2;-1;high;1344;right;ÜBUNG;EULE
AD0210;forcedguess;0;2;89;1;2;3;1;high;1500;left;MUSEUM;NETZ
AD0210;forcedguess;0;3;0;4;0;5;3;low;1608;left;PILLE;ROSINE
AD0210;forcedguess;0;3;1;1;2;2;-1;low;1452;right;AKZENT;METZGER
AD0210;forcedguess;0;3;2;0;2;2;0;low;1000;none;BART;REVISION
AD0210;forcedguess;0;3;3;4;2;2;-1;low;1250;right;TREND;LACK
AD0210;forcedguess;0;3;4;0;2;2;0;low;1750;none;FABRIK;BURG
AD0210;forcedguess;0;3;5;0;2;2;0;low;1858;none;SCHLEIER;KNOCHEN
AD0210;forcedguess;0;3;6;1;2;2;-1;low;1014;right;BRETT;ALLIANZ
AD0210;forcedguess;0;3;7;4;2;3;1;low;1155;left;VERTRAG;ERHEBUNG
AD0210;forcedguess;0;3;8;1;2;2;-1;low;1108;right;KATALOG;ZWEIG
AD0210;forcedguess;0;3;9;1;2;2;-1;low;1157;right;HEMD;ROBOTER
AD0210;forcedguess;0;3;10;4;0;5;3;low;1983;left;KRANZ;TROMPETE
AD0210;forcedguess;0;3;11;4;2;2;-1;low;1031;right;ZEILE;GRÜNDUNG
AD0210;forcedguess;0;3;12;4;2;2;-1;low;937;right;RELATION;HAMMER
AD0210;forcedguess;0;3;13;1;2;3;1;low;1297;left;WOLLE;PFAHL
AD0210;forcedguess;0;3;14;4;2;2;-1;low;1141;right;ZIMMER;RITTER
AD0210;forcedguess;0;3;15;4;5;5;3;low;1968;right;RINDE;FAHNE
AD0210;forcedguess;0;3;16;1;2;2;-1;low;1532;right;KITTEL;ZUSCHLAG
AD0210;forcedguess;0;3;17;1;2;2;-1;low;1265;right;FROST;GANS
AD0210;forcedguess;0;3;18;4;2;3;1;low;1032;left;BLEI;BOGEN
AD0210;forcedguess;0;3;19;1;5;5;3;low;1671;right;SCHÖPFER;BÜRO
AD0210;forcedguess;0;3;20;1;2;3;1;low;1436;left;EINNAHME;SYMPTOM
AD0210;forcedguess;0;3;21;1;0;5;3;low;1375;left;JUNGFRAU;GERÜST
AD0210;forcedguess;0;3;22;1;1;1;-2;low;1890;right;KASTEN;KERAMIK
AD0210;forcedguess;0;3;23;1;2;3;1;low;1187;left;DETAIL;SYNTAX
AD0210;forcedguess;0;3;24;4;2;2;-1;low;1312;right;SENDER;BEIHILFE
AD0210;forcedguess;0;3;25;1;2;3;1;low;1078;left;PATE;LÄUFER
AD0210;forcedguess;0;3;26;4;2;2;-1;low;1141;right;EINZUG;SKALA
AD0210;forcedguess;0;3;27;0;4;4;0;low;1937;none;TUNNEL;RADIUS
AD0210;forcedguess;0;3;28;4;2;2;-1;low;1156;right;SUPPE;TRÄGER
AD0210;forcedguess;0;3;29;0;2;2;0;low;1250;none;PROFI;BUSCH
AD0210;forcedguess;0;3;30;1;2;3;1;low;1360;left;NEUZEIT;KREIDE
AD0210;forcedguess;0;3;31;1;4;1;-2;low;2171;left;BÜCHSE;FELD
AD0210;forcedguess;0;3;32;1;2;2;-1;low;1031;right;ZENTRALE;DIENER
AD0210;forcedguess;0;3;33;4;2;2;-1;low;1062;right;LEINE;SCHAF
AD0210;forcedguess;0;3;34;0;2;2;0;low;3375;none;DORN;NACHWEIS
AD0210;forcedguess;0;3;35;4;2;3;1;low;1234;left;VIDEO;PFERD
AD0210;forcedguess;0;3;36;0;2;2;0;low;1780;none;AKTIE;DIENST
AD0210;forcedguess;0;3;37;1;2;2;-1;low;953;right;GLAS;BELEGUNG
AD0210;forcedguess;0;3;38;4;2;2;-1;low;1282;right;STATION;BEUTEL
AD0210;forcedguess;0;3;39;4;2;3;1;low;1546;left;DOKUMENT;RUDEL
AD0210;forcedguess;0;3;40;1;2;3;1;low;1437;left;BENZIN;ZIPFEL
AD0210;forcedguess;0;3;41;0;2;2;0;low;1344;none;FANG;LEDER
AD0210;forcedguess;0;3;42;4;0;5;3;low;2171;left;NETZWERK;REGELUNG
AD0210;forcedguess;0;3;43;4;2;3;1;low;1625;left;VERLAG;SCHUH
AD0210;forcedguess;0;3;44;1;2;3;1;low;1217;left;DOSE;SATTEL
AD0210;forcedguess;0;3;45;0;2;2;0;low;1234;none;ERHALT;GUSS
AD0210;forcedguess;0;3;46;1;2;2;-1;low;1500;right;HINBLICK;MAUS
AD0210;forcedguess;0;3;47;4;2;2;-1;low;2953;right;ZELT;DATEI
AD0210;forcedguess;0;3;48;1;2;2;-1;low;1109;right;PAKET;BRILLE
AD0210;forcedguess;0;3;49;4;2;2;-1;low;1281;right;BUTTER;MOOR
AD0210;forcedguess;0;3;50;0;2;2;0;low;1156;none;EWIGKEIT;SOHLE
AD0210;forcedguess;0;3;51;4;2;3;1;low;1312;left;HOCHHAUS;ADRESSE
AD0210;forcedguess;0;3;52;1;2;3;1;low;1358;left;BAUCH;INSTITUT
AD0210;forcedguess;0;3;53;1;2;3;1;low;1264;left;WIRT;BÜGEL
AD0210;forcedguess;0;3;54;1;2;2;-1;low;1500;right;GEMISCH;TAFEL
AD0210;forcedguess;0;3;55;4;2;2;-1;low;1030;right;SAAL;TROPFEN
AD0210;forcedguess;0;3;56;4;2;3;1;low;1202;left;ANSICHT;QUARK
AD0210;forcedguess;0;3;57;0;2;2;0;low;921;none;SCHEIBE;TEPPICH
AD0210;forcedguess;0;3;58;4;2;3;1;low;1250;left;SCHILD;STRUKTUR
AD0210;forcedguess;0;3;59;1;2;2;-1;low;2765;right;BILANZ;FAHRZEUG
AD0210;forcedguess;0;3;60;0;2;2;0;low;1062;none;VOLUMEN;TRUPPE
AD0210;forcedguess;0;3;61;0;2;2;0;low;1562;none;BÖRSE;KLÄRUNG
AD0210;forcedguess;0;3;62;4;2;2;-1;low;1421;right;POST;RENTE
AD0210;forcedguess;0;3;63;4;2;3;1;low;1250;left;KASSE;ANLASS
AD0210;forcedguess;0;3;64;1;2;2;-1;low;1390;right;GEPÄCK;TISCH
AD0210;forcedguess;0;3;65;1;2;3;1;low;1375;left;MODELL;HECKE
AD0210;forcedguess;0;3;66;4;0;5;3;low;1077;left;KATZE;VIEH
AD0210;forcedguess;0;3;67;1;2;2;-1;low;1469;right;TAGUNG;UMSTAND
AD0210;forcedguess;0;3;68;1;2;2;-1;low;1530;right;KONTO;KABINE
AD0210;forcedguess;0;3;69;4;2;2;-1;low;1562;right;BLECH;BÜRSTE
AD0210;forcedguess;0;3;70;0;2;2;0;low;1578;none;FAKTOR;ERDBALL
AD0210;forcedguess;0;3;71;0;5;5;0;low;1750;none;PELZ;MÄDEL
AD0210;forcedguess;0;3;72;4;0;5;3;low;1577;left;FELL;GEWICHT
AD0210;forcedguess;0;3;73;1;2;3;1;low;1156;left;NEFFE;MINIMUM
AD0210;forcedguess;0;3;74;4;2;3;1;low;1233;left;LIZENZ;VERLAUF
AD0210;forcedguess;0;3;75;4;2;3;1;low;1202;left;GRAD;STAND
AD0210;forcedguess;0;3;76;1;0;5;3;low;1766;left;VORTAG;RAUPE
AD0210;forcedguess;0;3;77;0;2;2;0;low;1359;none;TEICH;DIREKTOR
AD0210;forcedguess;0;3;78;4;2;2;-1;low;1328;right;STUHL;AUSNAHME
AD0210;forcedguess;0;3;79;4;2;3;1;low;1250;left;STEIN;URHEBER
AD0210;forcedguess;0;3;80;1;2;3;1;low;1375;left;PARKETT;STRICH
AD0210;forcedguess;0;3;81;1;2;2;-1;low;1171;right;KNABE;HÖRER
AD0210;forcedguess;0;3;82;1;2;3;1;low;1250;left;SACK;ORDEN
AD0210;forcedguess;0;3;83;1;2;3;1;low;1094;left;SAMMLUNG;BLATT
AD0210;forcedguess;0;3;84;4;2;3;1;low;1156;left;THEORIE;GEWERBE
AD0210;forcedguess;0;3;85;4;2;2;-1;low;1484;right;TATSACHE;HERGANG
AD0210;forcedguess;0;3;86;4;2;2;-1;low;1046;right;VERBUND;FISCH
AD0210;forcedguess;0;3;87;1;2;3;1;low;1139;left;WIRKUNG;GESCHÄFT
AD0210;forcedguess;0;3;88;0;2;2;0;low;1578;none;NEIGUNG;AUSGABE
AD0210;forcedguess;0;3;89;0;2;2;0;low;952;none;STUDIO;DICHTER
AD0210;forcedguess;1;0;0;1;0;5;3;low;2733;left;visual\obj499spiderweb.gif;visual\obj043bicycle.gif
AD0210;forcedguess;1;0;1;1;1;1;-2;low;2140;right;visual\obj321pinecone.gif;visual\obj282net.gif
AD0210;forcedguess;1;0;2;1;5;5;3;low;2297;right;visual\obj042bench.gif;visual\obj227kite.gif
AD0210;forcedguess;1;0;3;3;0;5;3;low;1655;left;visual\obj464railroadtracks.gif;visual\obj216igloo.gif
AD0210;forcedguess;1;0;4;1;4;4;2;low;3608;right;visual\obj028banjo.gif;visual\obj066butter.gif
AD0210;forcedguess;1;0;5;1;2;3;1;low;2109;left;visual\obj003airplane.gif;visual\obj087celery.gif
AD0210;forcedguess;1;0;6;3;0;5;3;low;1171;left;visual\obj015asparagus.gif;visual\obj505wheelchair.gif
AD0210;forcedguess;1;0;7;1;5;5;3;low;1500;right;visual\obj211horse.gif;visual\obj124desk.gif
AD0210;forcedguess;1;0;8;3;5;5;3;low;1562;right;visual\obj179girl.gif;visual\obj428stroller.gif
AD0210;forcedguess;1;0;9;0;3;3;0;low;2405;none;visual\obj001accordion.gif;visual\obj438tail.gif
AD0210;forcedguess;1;0;10;1;2;3;1;low;1421;left;visual\obj472truck.gif;visual\obj447tv.gif
AD0210;forcedguess;1;0;11;3;5;5;3;low;1358;right;visual\obj385seal.gif;visual\obj208hoe.gif
AD0210;forcedguess;1;0;12;3;2;2;-1;low;2092;right;visual\obj141eagle.gif;visual\obj057boy.gif
AD0210;forcedguess;1;0;13;1;5;5;3;low;1937;right;visual\obj068button.gif;visual\obj316pig.gif
AD0210;forcedguess;1;0;14;3;2;3;1;low;2171;left;visual\obj135dress.gif;visual\obj323pirate.gif
AD0210;forcedguess;1;0;15;1;2;3;1;low;1500;left;visual\obj427strawberry.gif;visual\obj100clothespin.gif
AD0210;forcedguess;1;0;16;3;0;5;3;low;1328;left;visual\obj126dinosaur.gif;visual\obj489waiter.gif
AD0210;forcedguess;1;0;17;0;4;4;0;low;2578;none;visual\obj387sewingmachine.gif;visual\obj290owl.gif
AD0210;forcedguess;1;0;18;1;2;2;-1;low;1562;right;visual\obj413soldier.gif;visual\obj462top.gif
AD0210;forcedguess;1;0;19;0;3;3;0;low;2655;none;visual\obj504wheelbarrow.gif;visual\obj368ruler.gif
AD0210;forcedguess;1;0;20;0;2;2;0;low;1828;none;visual\obj004alligator.gif;visual\obj063broom.gif
AD0210;forcedguess;1;0;21;3;5;5;3;low;1780;right;visual\obj020backpack.gif;visual\obj369saddle.gif
AD0210;forcedguess;1;0;22;3;0;5;3;low;2639;left;visual\obj105pillar.gif;visual\obj082carousel.gif
AD0210;forcedguess;1;0;23;0;2;2;0;low;2546;none;visual\obj128dog.gif;visual\obj054bowl.gif
AD0210;forcedguess;1;0;24;1;3;3;1;low;1890;right;visual\obj340purse.gif;visual\obj123desert.gif
AD0210;forcedguess;1;0;25;1;3;3;1;low;2219;right;visual\obj076cane.gif;visual\obj512wing.gif
AD0210;forcedguess;1;0;26;1;4;1;-2;low;1874;left;visual\obj289ostrich.gif;visual\obj503wheel.gif
AD0210;forcedguess;1;0;27;1;3;2;-1;low;1953;left;visual\obj172funnel.gif;visual\obj320pineapple.gif
AD0210;forcedguess;1;0;28;1;0;5;3;low;1608;left;visual\obj154fire.gif;visual\obj029barbecue.gif
AD0210;forcedguess;1;0;29;3;0;5;3;low;1077;left;visual\obj168fork.gif;visual\obj292bucket.gif
AD0210;forcedguess;1;0;30;1;1;4;2;low;2766;left;visual\obj455tire.gif;visual\obj264mixer.gif
AD0210;forcedguess;1;0;31;0;2;2;0;low;2000;none;visual\obj162floor.gif;visual\obj083carrot.gif
AD0210;forcedguess;1;0;32;3;4;4;2;low;2110;right;visual\obj286octopus.gif;visual\obj326pizza.gif
AD0210;forcedguess;1;0;33;3;5;5;3;low;1578;right;visual\obj430suitcase.gif;visual\obj045bird.gif
AD0210;forcedguess;1;0;34;1;0;5;3;low;1467;left;visual\obj332popcorn.gif;visual\obj125diaper.gif
AD0210;forcedguess;1;0;35;1;1;4;2;low;1688;left;visual\obj073camera.gif;visual\obj367rug.gif
AD0210;forcedguess;1;0;36;1;5;5;3;low;1796;right;visual\obj422steeringwheel.gif;visual\obj163flower.gif
AD0210;forcedguess;1;0;37;1;2;2;-1;low;1344;right;visual\obj143earring.gif;visual\obj041belt.gif
AD0210;forcedguess;1;0;38;3;0;5;3;low;1281;left;visual\obj314piano.gif;visual\obj263mirror.gif
AD0210;forcedguess;1;0;39;0;2;2;0;low;1296;none;visual\obj378scale.gif;visual\obj194hammock.gif
AD0210;forcedguess;1;0;40;3;5;5;3;low;1530;right;visual\obj379scarf.gif;visual\obj198harp.gif
AD0210;forcedguess;1;0;41;3;5;5;3;low;1750;right;visual\obj394shoulder.gif;visual\obj446telescope.gif
AD0210;forcedguess;1;0;42;3;0;5;3;low;1389;left;visual\obj465tractor.gif;visual\obj229knight.gif
AD0210;forcedguess;1;0;43;3;5;5;3;low;2125;right;visual\obj492walnut.gif;visual\obj402skunk.gif
AD0210;forcedguess;1;0;44;1;5;5;3;low;1687;right;visual\obj417thread.gif;visual\obj334porcupine.gif
AD0210;forcedguess;1;0;45;3;5;5;3;low;1656;right;visual\obj488wagon.gif;visual\obj376saw.gif
AD0210;forcedguess;1;0;46;1;0;5;3;low;1405;left;visual\obj436needle.gif;visual\obj443teepee.gif
AD0210;forcedguess;1;0;47;0;4;4;0;low;2437;none;visual\obj467train.gif;visual\obj513witch.gif
AD0210;forcedguess;1;0;48;3;0;5;3;low;1766;left;visual\obj156firetruck.gif;visual\obj496watch.gif
AD0210;forcedguess;1;0;49;1;2;3;1;low;2094;left;visual\obj101cloud.gif;visual\obj301parachute.gif
AD0210;forcedguess;1;0;50;3;0;5;3;low;1328;left;visual\obj260medal.gif;visual\obj224kangaroo.gif
AD0210;forcedguess;1;0;51;3;5;5;3;low;2359;right;visual\obj183glove.gif;visual\obj219jack.gif
AD0210;forcedguess;1;0;52;1;0;5;3;low;1811;left;visual\obj134drawer.gif;visual\obj458toilet.gif
AD0210;forcedguess;1;0;53;3;0;5;3;low;1735;left;visual\obj407smoke.gif;visual\obj122dentist.gif
AD0210;forcedguess;1;0;54;0;3;3;0;low;1921;none;visual\obj252lock.gif;visual\obj160flashlight.gif
AD0210;forcedguess;1;0;55;1;5;5;3;low;2125;right;visual\obj249lizard.gif;visual\obj072camel.gif
AD0210;forcedguess;1;0;56;1;0;5;3;low;1969;left;visual\obj176genie.gif;visual\obj265priest.gif
AD0210;forcedguess;1;0;57;3;1;4;2;low;3500;left;visual\obj103coat.gif;visual\obj493walrus.gif
AD0210;forcedguess;1;0;58;3;5;5;3;low;1890;right;visual\obj234lamp.gif;visual\obj485violin.gif
AD0210;forcedguess;1;0;59;3;0;5;3;low;1140;left;visual\obj365rope.gif;visual\obj175fence.gif
AD0210;forcedguess;1;0;60;0;5;5;0;low;2375;none;visual\obj065bus.gif;visual\obj190hair.gif
AD0210;forcedguess;1;0;61;3;5;5;3;low;1702;right;visual\obj000circle.gif;visual\obj313penguin.gif
AD0210;forcedguess;1;0;62;1;1;1;-2;low;1984;right;visual\obj130dolphin.gif;visual\obj026banana.gif
AD0210;forcedguess;1;0;63;1;0;5;3;low;1344;left;visual\obj266monkey.gif;visual\obj241lettuce.gif
AD0210;forcedguess;1;0;64;3;5;5;3;low;1578;right;visual\obj027bandaid.gif;visual\obj374salt.gif
AD0210;forcedguess;1;0;65;0;2;2;0;low;1735;none;visual\obj008anvil.gif;visual\obj232ladle.gif
AD0210;forcedguess;1;0;66;1;2;2;-1;low;1171;right;visual\obj037bed.gif;visual\obj005anchor.gif
AD0210;forcedguess;1;0;67;1;2;3;1;low;1531;left;visual\obj279necklace.gif;visual\obj450thermos.gif
AD0210;forcedguess;1;0;68;0;2;2;0;low;2125;none;visual\obj192hamburger.gif;visual\obj395shovel.gif
AD0210;forcedguess;1;0;69;1;5;5;3;low;1483;right;visual\obj111cow.gif;visual\obj206hinge.gif
AD0210;forcedguess;1;0;70;1;2;2;-1;low;1218;right;visual\obj319pillow.gif;visual\obj221jar.gif
AD0210;forcedguess;1;0;71;3;0;5;3;low;1531;left;visual\obj255mailbox.gif;visual\obj426stove.gif
AD0210;forcedguess;1;0;72;3;5;5;3;low;1687;right;visual\obj273mouse.gif;visual\obj164flute.gif
AD0210;forcedguess;1;0;73;1;2;2;-1;low;1516;right;visual\obj055bow.gif;visual\obj189gun.gif
AD0210;forcedguess;1;0;74;3;3;3;1;low;1782;right;visual\obj238lemon.gif;visual\obj186grapes.gif
AD0210;forcedguess;1;0;75;3;0;5;3;low;2217;left;visual\obj053bottle.gif;visual\obj046blimp.gif
AD0210;forcedguess;1;0;76;0;1;1;0;low;2030;none;visual\obj196handcuffs.gif;visual\obj518yoyo.gif
AD0210;forcedguess;1;0;77;3;0;5;3;low;1186;left;visual\obj381scorpion.gif;visual\obj138drum.gif
AD0210;forcedguess;1;0;78;1;0;5;3;low;1921;left;visual\obj520zipper.gif;visual\obj483vase.gif
AD0210;forcedguess;1;0;79;1;1;4;2;low;2109;left;visual\obj086cat.gif;visual\obj251lobster.gif
AD0210;forcedguess;1;0;80;3;0;5;3;low;1390;left;visual\obj456toaster.gif;visual\obj303paw.gif
AD0210;forcedguess;1;0;81;1;2;2;-1;low;4796;right;visual\obj131donkey.gif;visual\obj486volcano.gif
AD0210;forcedguess;1;0;82;1;2;2;-1;low;2155;right;visual\obj451thimble.gif;visual\obj096cigarette.gif
AD0210;forcedguess;1;0;83;1;1;4;2;low;1875;left;visual\obj167football.gif;visual\obj069cactus.gif
AD0210;forcedguess;1;0;84;3;1;4;2;low;2483;left;visual\obj184goat.gif;visual\obj277nail.gif
AD0210;forcedguess;1;0;85;1;3;3;1;low;1671;right;visual\obj412couch.gif;visual\obj390shell.gif
AD0210;forcedguess;1;0;86;0;3;3;0;low;1843;none;visual\obj476turtle.gif;visual\obj498watermelon.gif
AD0210;forcedguess;1;0;87;0;2;2;0;low;2406;none;visual\obj033bathtub.gif;visual\obj079canopener.gif
AD0210;forcedguess;1;0;88;3;5;5;3;low;1812;right;visual\obj060bread.gif;visual\obj409snake.gif
AD0210;forcedguess;1;0;89;3;5;5;3;low;1516;right;visual\obj431sun.gif;visual\obj106comb.gif
AD0210;forcedguess;1;0;90;3;5;5;3;low;2046;right;visual\obj315picture.gif;visual\obj025balloon.gif
AD0210;forcedguess;1;0;91;0;1;1;0;low;1624;none;visual\obj207hippo.gif;visual\obj203helicopter.gif
AD0210;forcedguess;1;0;92;3;0;5;3;low;1578;left;visual\obj250llama.gif;visual\obj067butterfly.gif
AD0210;forcedguess;1;0;93;0;2;2;0;low;1577;none;visual\obj040bell.gif;visual\obj310pen.gif
AD0210;forcedguess;1;0;94;3;5;5;3;low;1562;right;visual\obj178giraffe.gif;visual\obj092chest.gif
AD0210;forcedguess;1;0;95;3;0;5;3;low;1500;left;visual\obj434swing.gif;visual\obj424stocking.gif
AD0210;forcedguess;1;0;96;3;5;5;3;low;2328;right;visual\obj403sled.gif;visual\obj423stethoscope.gif
AD0210;forcedguess;1;0;97;1;2;2;-1;low;2094;right;visual\obj308peas.gif;visual\obj118block.gif
AD0210;forcedguess;1;0;98;3;0;5;3;low;1296;left;visual\obj223jumprope.gif;visual\obj153finger.gif
AD0210;forcedguess;1;0;99;1;2;2;-1;low;1562;right;visual\obj287onion.gif;visual\obj220jacket.gif
AD0210;forcedguess;1;0;100;0;3;3;0;low;1750;none;visual\obj245lightswitch.gif;visual\obj350razor.gif
AD0210;forcedguess;1;0;101;3;5;5;3;low;1500;right;visual\obj280needle.gif;visual\obj146envelope.gif
AD0210;forcedguess;1;0;102;0;3;3;0;low;3141;none;visual\obj113crab.gif;visual\obj114crackers.gif
AD0210;forcedguess;1;0;103;1;0;5;3;low;1187;left;visual\obj441teapot.gif;visual\obj330policeman.gif
AD0210;forcedguess;1;0;104;1;0;5;3;low;1641;left;visual\obj506whip.gif;visual\obj501whale.gif
AD0210;forcedguess;1;0;105;0;2;2;0;low;1578;none;visual\obj478typewriter.gif;visual\obj309pelican.gif
AD0210;forcedguess;1;0;106;1;2;2;-1;low;2842;right;visual\obj180glass.gif;visual\obj317bird.gif
AD0210;forcedguess;1;0;107;1;2;2;-1;low;2046;right;visual\obj147eskimo.gif;visual\obj454tiger.gif
AD0210;forcedguess;1;0;108;1;3;2;-1;low;1844;left;visual\obj253log.gif;visual\obj509windmill.gif
AD0210;forcedguess;1;0;109;0;3;3;0;low;2030;none;visual\obj214firehydrant.gif;visual\obj480unicorn.gif
AD0210;forcedguess;1;0;110;0;5;5;0;low;2562;none;visual\obj009apple.gif;visual\obj418spoon.gif
AD0210;forcedguess;1;0;111;0;2;2;0;low;1780;none;visual\obj388shark.gif;visual\obj256man.gif
AD0210;forcedguess;1;0;112;1;1;1;-2;low;1937;right;visual\obj515woman.gif;visual\obj435sword.gif
AD0210;forcedguess;1;0;113;3;5;5;3;low;1671;right;visual\obj244lightning.gif;visual\obj148eye.gif
AD0210;forcedguess;1;0;114;3;2;3;1;low;1453;left;visual\obj448tennisracket.gif;visual\obj439tank.gif
AD0210;forcedguess;1;0;115;3;2;3;1;low;2983;left;visual\obj445telephone.gif;visual\obj149fan.gif
AD0210;forcedguess;1;0;116;3;2;2;-1;low;2467;right;visual\obj302parrot.gif;visual\obj442tear.gif
AD0210;forcedguess;1;0;117;1;2;3;1;low;2218;left;visual\obj345radio.gif;visual\obj094chimney.gif
AD0210;forcedguess;1;0;118;0;0;0;0;low;2608;none;visual\obj457toe.gif;visual\obj353rhinoceros.gif
AD0210;forcedguess;1;0;119;3;5;5;3;low;1594;right;visual\obj510window.gif;visual\obj231ladder.gif
AD0210;forcedguess;1;0;120;0;2;2;0;low;2203;none;visual\obj225key.gif;visual\obj416spider.gif
AD0210;forcedguess;1;0;121;1;2;3;1;low;1391;left;visual\obj247lips.gif;visual\obj377saxophone.gif
AD0210;forcedguess;1;0;122;3;1;4;2;low;1983;left;visual\obj024ball.gif;visual\obj331pool.gif
AD0210;forcedguess;1;0;123;1;0;5;3;low;1406;left;visual\obj466stoplight.gif;visual\obj420stairs.gif
AD0210;forcedguess;1;0;124;3;0;5;3;low;1531;left;visual\obj120curtains.gif;visual\obj278neck.gif
AD0210;forcedguess;1;1;0;3;5;5;3;low;3203;right;visual\obj440taperecorder.gif;visual\obj181glasses.gif
AD0210;forcedguess;1;1;1;1;1;4;2;low;1983;left;visual\obj312pencilsharpener.gif;visual\obj352refrigerator.gif
AD0210;forcedguess;1;1;2;0;2;2;0;low;1562;none;visual\obj084tape.gif;visual\obj327plate.gif
AD0210;forcedguess;1;1;3;1;5;5;3;low;1281;right;visual\obj453tie.gif;visual\obj090cheese.gif
AD0210;forcedguess;1;1;4;1;5;5;3;low;1844;right;visual\obj460grave.gif;visual\obj195hand.gif
AD0210;forcedguess;1;1;5;1;4;1;-2;low;1953;left;visual\obj329plug.gif;visual\obj093chicken.gif
AD0210;forcedguess;1;1;6;3;1;4;2;low;1625;left;visual\obj052boot.gif;visual\obj047wood.gif
AD0210;forcedguess;1;1;7;3;5;5;3;low;1328;right;visual\obj062bridge.gif;visual\obj002acorn.gif
AD0210;forcedguess;1;1;8;3;5;5;3;low;1281;right;visual\obj243lighthouse.gif;visual\obj035beard.gif
AD0210;forcedguess;1;1;9;3;0;5;3;low;1296;left;visual\obj218ironingboard.gif;visual\obj011arm.gif
AD0210;forcedguess;1;1;10;1;3;2;-1;low;2265;left;visual\obj479umbrella.gif;visual\obj419squirrel.gif
AD0210;forcedguess;1;1;11;0;5;5;0;low;1500;none;visual\obj034bear.gif;visual\obj516worm.gif
AD0210;forcedguess;1;1;12;3;0;0;-3;low;1577;right;visual\obj471trophy.gif;visual\obj300paperclip.gif
AD0210;forcedguess;1;1;13;1;5;5;3;low;1780;right;visual\obj070cage.gif;visual\obj030barrel.gif
AD0210;forcedguess;1;1;14;1;2;2;-1;low;1750;right;visual\obj294paint.gif;visual\obj102clown.gif
AD0210;forcedguess;1;1;15;1;5;5;3;low;1328;right;visual\obj433sweater.gif;visual\obj304peach.gif
AD0210;forcedguess;1;1;16;0;3;3;0;low;1906;none;visual\obj284nurse.gif;visual\obj429submarine.gif
AD0210;forcedguess;1;1;17;3;1;4;2;low;1842;left;visual\obj474chest.gif;visual\obj484vest.gif
AD0210;forcedguess;1;1;18;1;1;1;-2;low;1655;right;visual\obj298pants.gif;visual\obj380scissors.gif
AD0210;forcedguess;1;1;19;3;1;4;2;low;2219;left;visual\obj497wateringcan.gif;visual\obj396shower.gif
AD0210;forcedguess;1;1;20;0;3;3;0;low;1437;none;visual\obj137drill.gif;visual\obj074can.gif
AD0210;forcedguess;1;1;21;1;2;3;1;low;1546;left;visual\obj437table.gif;visual\obj406slipper.gif
AD0210;forcedguess;1;1;22;3;5;5;3;low;2062;right;visual\obj215icecreamcone.gif;visual\obj348rainbow.gif
AD0210;forcedguess;1;1;23;3;0;5;3;low;1344;left;visual\obj461toothbrush.gif;visual\obj145elephant.gif
AD0210;forcedguess;1;1;24;1;5;5;3;low;1500;right;visual\obj262microscope.gif;visual\obj341pyramid.gif
AD0210;forcedguess;1;1;25;1;3;3;1;low;2062;right;visual\obj452thumb.gif;visual\obj281nest.gif
AD0210;forcedguess;1;1;26;3;1;4;2;low;2187;left;visual\obj393shoe.gif;visual\obj140dustpan.gif
AD0210;forcedguess;1;1;27;3;5;5;3;low;2031;right;visual\obj421statue.gif;visual\obj293paintbrush.gif
AD0210;forcedguess;1;1;28;3;0;5;3;low;1141;left;visual\obj482vacuum.gif;visual\obj283nose.gif
AD0210;forcedguess;1;1;29;3;5;5;3;low;1437;right;visual\obj449tent.gif;visual\obj382screw.gif
AD0210;forcedguess;1;1;30;0;1;1;0;low;1687;none;visual\obj398skateboard.gif;visual\obj383screwdriver.gif
AD0210;forcedguess;1;1;31;3;1;4;2;low;2906;left;visual\obj115crib.gif;visual\obj142ear.gif
AD0210;forcedguess;1;1;32;1;2;2;-1;low;2046;right;visual\obj271motorcycle.gif;visual\obj343rabbit.gif
AD0210;forcedguess;1;1;33;1;0;5;3;low;1062;left;visual\obj071cake.gif;visual\obj014ashtray.gif
AD0210;forcedguess;1;1;34;3;0;5;3;low;1108;left;visual\obj275mushroom.gif;visual\obj080hat.gif
AD0210;forcedguess;1;1;35;1;4;4;2;low;2000;right;visual\obj322pipe.gif;visual\obj339pumpkin.gif
AD0210;forcedguess;1;1;36;1;0;5;3;low;1125;left;visual\obj185gorilla.gif;visual\obj473trumpet.gif
AD0210;forcedguess;1;1;37;3;0;5;3;low;4780;left;visual\obj012arrow.gif;visual\obj000square.gif
AD0210;forcedguess;1;1;38;1;0;5;3;low;1219;left;visual\obj075candle.gif;visual\obj191brush.gif
AD0210;forcedguess;1;1;39;0;3;3;0;low;2687;none;visual\obj404slide.gif;visual\obj363roof.gif
AD0210;forcedguess;1;1;40;3;5;5;3;low;2516;right;visual\obj097city.gif;visual\obj359rocket.gif
AD0210;forcedguess;1;1;41;1;0;5;3;low;1859;left;visual\obj006ant.gif;visual\obj373sailor.gif
AD0210;forcedguess;1;1;42;1;0;5;3;low;1406;left;visual\obj119cup.gif;visual\obj200hay.gif
AD0210;forcedguess;1;1;43;1;5;5;3;low;1828;right;visual\obj197hanger.gif;visual\obj048boat.gif
AD0210;forcedguess;1;1;44;3;0;5;3;low;1217;left;visual\obj414spaghetti.gif;visual\obj205highchair.gif
AD0210;forcedguess;1;1;45;3;5;5;3;low;2952;right;visual\obj410snowman.gif;visual\obj010fishtank.gif
AD0210;forcedguess;1;1;46;3;5;5;3;low;1547;right;visual\obj296pan.gif;visual\obj000star.gif
AD0210;forcedguess;1;1;47;3;5;5;3;low;2077;right;visual\obj272mountain.gif;visual\obj000triangle.gif
AD0210;forcedguess;1;1;48;3;2;3;1;low;1780;left;visual\obj133dragon.gif;visual\obj132door.gif
AD0210;forcedguess;1;1;49;1;0;5;3;low;1812;left;visual\obj358rock.gif;visual\obj050bone.gif
AD0210;forcedguess;1;1;50;3;0;5;3;low;1766;left;visual\obj018bottle.gif;visual\obj112cowboy.gif
AD0210;forcedguess;1;1;51;1;5;5;3;low;1625;right;visual\obj333popsicle.gif;visual\obj078canoe.gif
AD0210;forcedguess;1;1;52;0;2;2;0;low;2014;none;visual\obj107cookie.gif;visual\obj261microphone.gif
AD0210;forcedguess;1;1;53;1;5;5;3;low;1750;right;visual\obj397sink.gif;visual\obj328pliers.gif
AD0210;forcedguess;1;1;54;1;2;2;-1;low;2405;right;visual\obj091cherry.gif;visual\obj051book.gif
AD0210;forcedguess;1;1;55;1;0;5;3;low;1578;left;visual\obj357robot.gif;visual\obj109corkscrew.gif
AD0210;forcedguess;1;1;56;1;3;2;-1;low;1952;left;visual\obj095church.gif;visual\obj217iron.gif
AD0210;forcedguess;1;1;57;0;4;4;0;low;2859;none;visual\obj324pitcher.gif;visual\obj346radish.gif
AD0210;forcedguess;1;1;58;0;0;0;0;low;2203;none;visual\obj432swan.gif;visual\obj240letter.gif
AD0210;forcedguess;1;1;59;1;5;5;3;low;1766;right;visual\obj335pot.gif;visual\obj088chain.gif
AD0210;forcedguess;1;1;60;1;5;5;3;low;2141;right;visual\obj085castle.gif;visual\obj306peanut.gif
AD0210;forcedguess;1;1;61;1;0;5;3;low;1171;left;visual\obj152fence.gif;visual\obj061bride.gif
AD0210;forcedguess;1;1;62;3;0;5;3;low;1219;left;visual\obj254magnet.gif;visual\obj366rose.gif
AD0210;forcedguess;1;1;63;3;0;5;3;low;1514;left;visual\obj336potato.gif;visual\obj235lawnmower.gif
AD0210;forcedguess;1;1;64;1;1;4;2;low;2342;left;visual\obj288orange.gif;visual\obj193hammer.gif
AD0210;forcedguess;1;1;65;1;5;5;3;low;2078;right;visual\obj129doll.gif;visual\obj174gas.gif
AD0210;forcedguess;1;1;66;0;0;0;0;low;1687;none;visual\obj013artichoke.gif;visual\obj364rooster.gif
AD0210;forcedguess;1;1;67;0;2;2;0;low;1718;none;visual\obj355ring.gif;visual\obj077cannon.gif
AD0210;forcedguess;1;1;68;3;5;5;3;low;1797;right;visual\obj514wolf.gif;visual\obj204helmet.gif
AD0210;forcedguess;1;1;69;3;5;5;3;low;1891;right;visual\obj274mousetrap.gif;visual\obj463towel.gif
AD0210;forcedguess;1;1;70;1;0;5;3;low;1280;left;visual\obj246lion.gif;visual\obj016ax.gif
AD0210;forcedguess;1;1;71;3;0;5;3;low;1546;left;visual\obj036beaver.gif;visual\obj242lightbulb.gif
AD0210;forcedguess;1;1;72;0;1;1;0;low;1546;none;visual\obj201heart.gif;visual\obj098clamp.gif
AD0210;forcedguess;1;1;73;0;2;2;0;low;3453;none;visual\obj269mop.gif;visual\obj325pitchfork.gif
AD0210;forcedguess;1;1;74;3;3;3;1;low;2046;right;visual\obj144egg.gif;visual\obj400skirt.gif
AD0210;forcedguess;1;1;75;0;4;4;0;low;2125;none;visual\obj170fox.gif;visual\obj481unicycle.gif
AD0210;forcedguess;1;1;76;1;0;5;3;low;1766;left;visual\obj490bricks.gif;visual\obj104dime.gif
AD0210;forcedguess;1;1;77;1;0;5;3;low;1625;left;visual\obj475turkey.gif;visual\obj469tree.gif
AD0210;forcedguess;1;1;78;3;0;5;3;low;1500;left;visual\obj297panda.gif;visual\obj305peacock.gif
AD0210;forcedguess;1;1;79;3;5;5;3;low;2000;right;visual\obj257map.gif;visual\obj370safe.gif
AD0210;forcedguess;1;1;80;1;0;5;3;low;1733;left;visual\obj202heel.gif;visual\obj159flag.gif
AD0210;forcedguess;1;1;81;3;1;4;2;low;2109;left;visual\obj237leg.gif;visual\obj169fountain.gif
AD0210;forcedguess;1;1;82;3;5;5;3;low;1500;right;visual\obj491wallet.gif;visual\obj386seesaw.gif
AD0210;forcedguess;1;1;83;0;3;3;0;low;2093;none;visual\obj136dresser.gif;visual\obj226king.gif
AD0210;forcedguess;1;1;84;0;2;2;0;low;1485;none;visual\obj039bug.gif;visual\obj349rake.gif
AD0210;forcedguess;1;1;85;1;4;4;2;low;1983;right;visual\obj155fireman.gif;visual\obj405slingshot.gif
AD0210;forcedguess;1;1;86;0;2;2;0;low;1358;none;visual\obj415spatula.gif;visual\obj384seahorse.gif
AD0210;forcedguess;1;1;87;0;2;2;0;low;1609;none;visual\obj038bee.gif;visual\obj032bat.gif
AD0210;forcedguess;1;1;88;3;1;4;2;low;1797;left;visual\obj307pear.gif;visual\obj099clock.gif
AD0210;forcedguess;1;1;89;3;5;5;3;low;1546;right;visual\obj342queen.gif;visual\obj507whistle.gif
AD0210;forcedguess;1;1;90;3;5;5;3;low;1389;right;visual\obj151feather.gif;visual\obj411sock.gif
AD0210;forcedguess;1;1;91;1;3;2;-1;low;2046;left;visual\obj408snail.gif;visual\obj495washingmachine.gif
AD0210;forcedguess;1;1;92;3;0;5;3;low;1233;left;visual\obj444teeth.gif;visual\obj019stroller.gif
AD0210;forcedguess;1;1;93;3;0;5;3;low;1437;left;visual\obj470tripod.gif;visual\obj089chair.gif
AD0210;forcedguess;1;1;94;1;2;3;1;low;2141;left;visual\obj517wrench.gif;visual\obj392shirt.gif
AD0210;forcedguess;1;1;95;3;3;3;1;low;2578;right;visual\obj022bag.gif;visual\obj356road.gif
AD0210;forcedguess;1;1;96;1;2;3;1;low;1671;left;visual\obj500well.gif;visual\obj187grasshopper.gif
AD0210;forcedguess;1;1;97;3;2;2;-1;low;1327;right;visual\obj295palmtree.gif;visual\obj139duck.gif
AD0210;forcedguess;1;1;98;0;2;2;0;low;1625;none;visual\obj487waffle.gif;visual\obj375sandwich.gif
AD0210;forcedguess;1;1;99;3;5;5;3;low;1483;right;visual\obj502wheat.gif;visual\obj056box.gif
AD0210;forcedguess;1;1;100;1;2;2;-1;low;2296;right;visual\obj344raccoon.gif;visual\obj121deer.gif
AD0210;forcedguess;1;1;101;1;2;3;1;low;1250;left;visual\obj157fish.gif;visual\obj276music.gif
AD0210;forcedguess;1;1;102;0;2;2;0;low;1640;none;visual\obj362rollingpin.gif;visual\obj270mosquito.gif
AD0210;forcedguess;1;1;103;0;2;2;0;low;1734;none;visual\obj222puzzle.gif;visual\obj267moon.gif
AD0210;forcedguess;1;1;104;1;2;2;-1;low;1891;right;visual\obj158fishingpole.gif;visual\obj049bomb.gif
AD0210;forcedguess;1;1;105;1;4;4;2;low;1593;right;visual\obj166foot.gif;visual\obj059bra.gif
AD0210;forcedguess;1;1;106;0;2;2;0;low;1860;none;visual\obj230knot.gif;visual\obj044binoculars.gif
AD0210;forcedguess;1;1;107;1;5;5;3;low;1703;right;visual\obj508wig.gif;visual\obj291package.gif
AD0210;forcedguess;1;1;108;1;0;5;3;low;1155;left;visual\obj248lipstick.gif;visual\obj081car.gif
AD0210;forcedguess;1;1;109;1;2;2;-1;low;1592;right;visual\obj338priest.gif;visual\obj354gun.gif
AD0210;forcedguess;1;1;110;3;5;5;3;low;1625;right;visual\obj228knife.gif;visual\obj519zebra.gif
AD0210;forcedguess;1;1;111;3;5;5;3;low;1562;right;visual\obj285nut.gif;visual\obj209hoof.gif
AD0210;forcedguess;1;1;112;1;1;1;-2;low;1827;right;visual\obj236leaf.gif;visual\obj023balcony.gif
AD0210;forcedguess;1;1;113;3;0;5;3;low;1359;left;visual\obj258mask.gif;visual\obj116cross.gif
AD0210;forcedguess;1;1;114;0;2;2;0;low;1641;none;visual\obj058branch.gif;visual\obj150faucet.gif
AD0210;forcedguess;1;1;115;3;0;5;3;low;1375;left;visual\obj477tweezers.gif;visual\obj110corn.gif
AD0210;forcedguess;1;1;116;3;1;1;-2;low;2328;right;visual\obj182globe.gif;visual\obj372sailboat.gif
AD0210;forcedguess;1;1;117;0;2;2;0;low;2343;none;visual\obj064brush.gif;visual\obj117crown.gif
AD0210;forcedguess;1;1;118;3;0;5;3;low;1671;left;visual\obj188guitar.gif;visual\obj233ladybug.gif
AD0210;forcedguess;1;1;119;1;1;4;2;low;2171;left;visual\obj511glass.gif;visual\obj459tomato.gif
AD0210;forcedguess;1;1;120;1;5;5;3;low;1405;right;visual\obj351recordplayer.gif;visual\obj401skis.gif
AD0210;forcedguess;1;1;121;3;0;5;3;low;2905;left;visual\obj212hose.gif;visual\obj268moose.gif
AD0210;forcedguess;1;1;122;0;2;2;0;low;1828;none;visual\obj177ghost.gif;visual\obj360rockingchair.gif
AD0210;forcedguess;1;1;123;1;2;3;1;low;1468;left;visual\obj021badge.gif;visual\obj031basket.gif
AD0210;forcedguess;1;1;124;3;5;5;3;low;1514;right;visual\obj259match.gif;visual\obj391boat.gif
AD0906;forcedguess;0;0;0;0;1;1;0;low;8953;none;BRETT;TEPPICH
AD0906;forcedguess;0;0;1;1;5;5;3;low;2891;right;MORAL;HÜTTE
AD0906;forcedguess;0;0;2;1;0;5;3;low;4233;left;SCHNECKE;GANS
AD0906;forcedguess;0;0;3;4;0;5;3;low;1889;left;LAGER;BASS
AD0906;forcedguess;0;0;4;0;2;2;0;low;3187;none;HORN;ZAUN
AD0906;forcedguess;0;0;5;4;0;5;3;low;2469;left;REZEPT;FÜRST
AD0906;forcedguess;0;0;6;4;0;5;3;low;1171;left;ADRESSE;MÜHLE
AD0906;forcedguess;0;0;7;4;0;5;3;low;1530;left;BUCHUNG;DATEI
AD0906;forcedguess;0;0;8;4;0;5;3;low;1187;left;LÖFFEL;ANZEIGE
AD0906;forcedguess;0;0;9;0;0;0;0;low;2250;none;GRAMM;SCHEUNE
AD0906;forcedguess;0;0;10;1;1;4;2;low;2797;left;ANZUG;LAUB
AD0906;forcedguess;0;0;11;0;1;1;0;low;3000;none;SERIE;LABOR
AD0906;forcedguess;0;0;12;4;0;5;3;low;1578;left;SITZUNG;PUFFER
AD0906;forcedguess;0;0;13;0;5;5;0;low;2266;none;WAGEN;ZEIGER
AD0906;forcedguess;0;0;14;4;0;5;3;low;1875;left;SITTE;BAHNHOF
AD0906;forcedguess;0;0;15;4;5;5;3;low;1609;right;TANK;PIRAT
AD0906;forcedguess;0;0;16;4;5;5;3;low;1172;right;REGEL;DIALOG
AD0906;forcedguess;0;0;17;4;0;5;3;low;1406;left;KÄSE;KLÄRUNG
AD0906;forcedguess;0;0;18;0;1;1;0;low;3077;none;BLATT;DEUTUNG
AD0906;forcedguess;0;0;19;1;4;1;-2;low;4687;left;PATER;TUNNEL
AD0906;forcedguess;0;0;20;1;2;2;-1;low;3342;right;VORHANG;TISCH
AD0906;forcedguess;0;0;21;1;1;4;2;low;2764;left;BÜNDNIS;GALA
AD0906;forcedguess;0;0;22;4;0;5;3;low;1187;left;FREQUENZ;ANHANG
AD0906;forcedguess;0;0;23;1;1;4;2;low;2437;left;GARDE;SÄULE
AD0906;forcedguess;0;0;24;1;5;5;3;low;1733;right;SCHÖPFER;ENTWURF
AD0906;forcedguess;0;0;25;1;0;5;3;low;1625;left;ROSINE;PRINZ
AD0906;forcedguess;0;0;26;4;5;5;3;low;3969;right;DING;LEBER
AD0906;forcedguess;0;0;27;1;5;5;3;low;1671;right;BART;LÄNGE
AD0906;forcedguess;0;0;28;0;1;1;0;low;2655;none;LOCHER;ORDEN
AD0906;forcedguess;0;0;29;0;4;4;0;low;3233;none;SPALTE;STROPHE
AD0906;forcedguess;0;0;30;4;1;4;2;low;3218;left;FISCH;UMGANG
AD0906;forcedguess;0;0;31;1;4;4;2;low;2233;right;REVISION;ZUNGE
AD0906;forcedguess;0;0;32;4;0;5;3;low;4437;left;ERHALT;BESCHEID
AD0906;forcedguess;0;0;33;1;3;3;1;low;3718;right;GEWERBE;HERGANG
AD0906;forcedguess;0;0;34;1;1;1;-2;low;2952;right;WENDUNG;FAHRZEUG
AD0906;forcedguess;0;0;35;0;5;5;0;low;4780;none;BERG;STAHL
AD0906;forcedguess;0;0;36;4;4;4;2;low;3921;right;BECKEN;FELD
AD0906;forcedguess;0;0;37;1;1;4;2;low;2358;left;MARKE;WANNE
AD0906;forcedguess;0;0;38;1;4;4;2;low;1890;right;SCHRAUBE;ERLÖS
AD0906;forcedguess;0;0;39;4;0;5;3;low;2546;left;LIZENZ;GUSS
AD0906;forcedguess;0;0;40;1;2;3;1;low;4421;left;STIRN;HÜTER
AD0906;forcedguess;0;0;41;1;1;4;2;low;2469;left;BEWERBER;NETZ
AD0906;forcedguess;0;0;42;1;4;4;2;low;2155;right;ANSPRUCH;VARIANTE
AD0906;forcedguess;0;0;43;0;2;2;0;low;7000;none;HELM;KNABE
AD0906;forcedguess;0;0;44;4;4;4;2;low;4750;right;SEHNE;PATENT
AD0906;forcedguess;0;0;45;1;4;1;-2;low;2687;left;KUGEL;ZITAT
AD0906;forcedguess;0;0;46;4;1;1;-2;low;5032;right;HÄNGER;SOCKEL
AD0906;forcedguess;0;0;47;1;4;4;2;low;2312;right;AGENT;ECKE
AD0906;forcedguess;0;0;48;4;5;5;3;low;1530;right;TROPFEN;SPIRALE
AD0906;forcedguess;0;0;49;4;1;4;2;low;2889;left;VERMERK;FLÄCHE
AD0906;forcedguess;0;0;50;1;1;4;2;low;2375;left;HEBEL;LÄUFER
AD0906;forcedguess;0;0;51;0;0;0;0;low;3092;none;KASSETTE;RAST
AD0906;forcedguess;0;0;52;1;4;1;-2;low;3250;left;SENKUNG;FAZIT
AD0906;forcedguess;0;0;53;1;4;4;2;low;4483;right;SEGEL;ABFLUSS
AD0906;forcedguess;0;0;54;0;1;1;0;low;3155;none;REGAL;REPORTER
AD0906;forcedguess;0;0;55;0;2;2;0;low;3702;none;RECHTECK;FELL
AD0906;forcedguess;0;0;56;1;4;1;-2;low;8219;left;KASTEN;AUSWEIS
AD0906;forcedguess;0;0;57;4;5;5;3;low;1750;right;NUMMER;SORTE
AD0906;forcedguess;0;0;58;1;4;1;-2;low;3953;left;WAHRUNG;ANLASS
AD0906;forcedguess;0;0;59;4;5;5;3;low;1811;right;STEMPEL;GEMISCH
AD0906;forcedguess;0;0;60;4;0;5;3;low;3562;left;SONATE;PHRASE
AD0906;forcedguess;0;0;61;4;5;5;3;low;1906;right;NEIGUNG;STRUMPF
AD0906;forcedguess;0;0;62;4;5;5;3;low;2765;right;KLINGEL;ENDUNG
AD0906;forcedguess;0;0;63;0;5;5;0;low;2296;none;SYMPTOM;EXPORT
AD0906;forcedguess;0;0;64;4;1;1;-2;low;3718;right;BEWOHNER;PRINZIP
AD0906;forcedguess;0;0;65;1;1;1;-2;low;3092;right;FUNKTION;REPUBLIK
AD0906;forcedguess;0;0;66;4;0;5;3;low;1703;left;BURG;HÖRER
AD0906;forcedguess;0;0;67;4;5;5;3;low;1735;right;BENZIN;BLUSE
AD0906;forcedguess;0;0;68;4;4;1;-2;low;4844;left;UMBAU;TRICK
AD0906;forcedguess;0;0;69;0;0;0;0;low;1656;none;DIREKTOR;FABRIK
AD0906;forcedguess;0;0;70;1;4;4;2;low;3016;right;NOTAR;MAST
AD0906;forcedguess;0;0;71;4;5;5;3;low;1625;right;SEKT;PHASE
AD0906;forcedguess;0;0;72;1;5;5;3;low;2157;right;SYSTEM;PROFI
AD0906;forcedguess;0;0;73;1;4;1;-2;low;3141;left;ZIPFEL;LOCKE
AD0906;forcedguess;0;0;74;4;4;4;2;low;5844;right;RÜSTUNG;KATALOG
AD0906;forcedguess;0;0;75;0;5;5;0;low;2609;none;ANHÄNGER;HANDEL
AD0906;forcedguess;0;0;76;0;1;1;0;low;3515;none;BLASE;EPISODE
AD0906;forcedguess;0;0;77;4;5;5;3;low;1625;right;TROMPETE;NATION
AD0906;forcedguess;0;0;78;1;5;5;3;low;1671;right;PLANET;EBBE
AD0906;forcedguess;0;0;79;1;4;1;-2;low;3108;left;NEFFE;FLASCHE
AD0906;forcedguess;0;0;80;4;5;5;3;low;4093;right;WIEGE;STIFT
AD0906;forcedguess;0;0;81;0;4;4;0;low;3656;none;WARTUNG;BEIN
AD0906;forcedguess;0;0;82;1;4;4;2;low;3094;right;DOKUMENT;PROGNOSE
AD0906;forcedguess;0;0;83;1;1;1;-2;low;3092;right;BEIHILFE;TRÄGER
AD0906;forcedguess;0;0;84;4;0;5;3;low;1718;left;ULME;COMPUTER
AD0906;forcedguess;0;0;85;1;0;5;3;low;1656;left;UMSTAND;MATRIX
AD0906;forcedguess;0;0;86;4;4;4;2;low;2875;right;TERMIN;SEIL
AD0906;forcedguess;0;0;87;4;0;5;3;low;2562;left;ZENTRUM;VASE
AD0906;forcedguess;0;0;88;1;1;4;2;low;4843;left;EIGNUNG;SPRECHER
AD0906;forcedguess;0;0;89;1;4;4;2;low;4781;right;BIRNE;GLAS
AD0906;forcedguess;0;1;0;1;4;4;5;high;3405;right;FERSE;PUPPE
AD0906;forcedguess;0;1;1;1;5;5;9;high;5014;right;KETTE;POSITION
AD0906;forcedguess;0;1;2;1;1;1;-5;high;5093;right;GERÄT;HANDWERK
AD0906;forcedguess;0;1;3;0;0;0;0;high;4625;none;KONZERN;TAKT
AD0906;forcedguess;0;1;4;0;1;1;0;high;5360;none;PINSEL;TRUPPE
AD0906;forcedguess;0;1;5;1;0;5;9;high;1500;left;SCHINKEN;ZANGE
AD0906;forcedguess;0;1;6;4;5;5;9;high;1969;right;BÜRO;LEINE
AD0906;forcedguess;0;1;7;4;0;5;9;high;2014;left;KINN;PELZ
AD0906;forcedguess;0;1;8;1;5;5;9;high;1936;right;ZIMMER;ARENA
AD0906;forcedguess;0;1;9;1;1;4;5;high;3483;left;LEITER;LEUCHTE
AD0906;forcedguess;0;1;10;4;4;1;-5;high;3000;left;BEZUG;PYRAMIDE
AD0906;forcedguess;0;1;11;4;5;5;9;high;2406;right;ZENTRALE;ZUCHT
AD0906;forcedguess;0;1;12;0;5;5;0;high;3828;none;ERHEBUNG;EULE
AD0906;forcedguess;0;1;13;4;2;3;1;high;2844;left;RADIUS;VIDEO
AD0906;forcedguess;0;1;14;0;1;1;0;high;4546;none;POLIZIST;TATSACHE
AD0906;forcedguess;0;1;15;1;5;0;-9;high;3140;left;WÄHRUNG;WURST
AD0906;forcedguess;0;1;16;1;3;2;-1;high;2608;left;VOTUM;MINIMUM
AD0906;forcedguess;0;1;17;4;1;4;5;high;3421;left;SCHUH;KANDIDAT
AD0906;forcedguess;0;1;18;1;5;0;-9;high;5703;left;KONGRESS;SCHEIBE
AD0906;forcedguess;0;1;19;0;2;2;0;high;4141;none;PAPRIKA;WAPPEN
AD0906;forcedguess;0;1;20;1;4;4;5;high;2453;right;VERTRAG;MOLEKÜL
AD0906;forcedguess;0;1;21;4;0;5;9;high;1952;left;AKTIE;HOSE
AD0906;forcedguess;0;1;22;1;4;4;5;high;2969;right;UMGEBUNG;MAGEN
AD0906;forcedguess;0;1;23;4;4;4;5;high;3328;right;KAMMER;PEGEL
AD0906;forcedguess;0;1;24;4;4;4;5;high;2875;right;DOSE;EPOCHE
AD0906;forcedguess;0;1;25;1;5;5;9;high;7421;right;KREIDE;RINDE
AD0906;forcedguess;0;1;26;1;2;3;1;high;3905;left;DIENER;KLAMMER
AD0906;forcedguess;0;1;27;1;3;3;1;high;3234;right;PFAHL;VERLAG
AD0906;forcedguess;0;1;28;4;1;4;5;high;3812;left;FERNROHR;KRABBE
AD0906;forcedguess;0;1;29;0;1;1;0;high;3844;none;MUSTER;NAGEL
AD0906;forcedguess;0;1;30;1;3;2;-1;high;3218;left;NEUZEIT;AUSGABE
AD0906;forcedguess;0;1;31;1;0;5;9;high;2093;left;INSTITUT;VERS
AD0906;forcedguess;0;1;32;4;3;3;1;high;6812;right;REST;PLAN
AD0906;forcedguess;0;1;33;4;1;1;-5;high;5016;right;RELATION;ALGE
AD0906;forcedguess;0;1;34;1;5;5;9;high;2297;right;MÖNCH;AUFTRAG
AD0906;forcedguess;0;1;35;1;0;5;9;high;2593;left;FLÖTE;ÄNDERUNG
AD0906;forcedguess;0;1;36;1;5;5;9;high;1952;right;VORNAME;QUADRAT
AD0906;forcedguess;0;1;37;1;4;4;5;high;3750;right;EINGABE;THERAPIE
AD0906;forcedguess;0;1;38;0;5;5;0;high;3218;none;ARGUMENT;AKZENT
AD0906;forcedguess;0;1;39;4;5;5;9;high;1594;right;PÄCKCHEN;SCHALTER
AD0906;forcedguess;0;1;40;4;4;4;5;high;3406;right;HOCHHAUS;MOTTO
AD0906;forcedguess;0;1;41;4;4;4;5;high;2250;right;STADIUM;BECHER
AD0906;forcedguess;0;1;42;4;0;5;9;high;1875;left;WURZEL;MÜTZE
AD0906;forcedguess;0;1;43;4;5;5;9;high;1890;right;PATE;WERTUNG
AD0906;forcedguess;0;1;44;4;0;5;9;high;1703;left;GERÜST;FISCHER
AD0906;forcedguess;0;1;45;1;4;4;5;high;2452;right;MONITOR;ZWIEBEL
AD0906;forcedguess;0;1;46;4;0;5;9;high;1889;left;HAHN;ANFRAGE
AD0906;forcedguess;0;1;47;0;0;0;0;high;1562;none;KÄFER;TREPPE
AD0906;forcedguess;0;1;48;0;4;4;0;high;3313;none;NADEL;ELCH
AD0906;forcedguess;0;1;49;1;5;0;-9;high;2687;left;HÄLFTE;BINDUNG
AD0906;forcedguess;0;1;50;4;1;1;-5;high;5437;right;GEREDE;KELLER
AD0906;forcedguess;0;1;51;4;5;5;9;high;1514;right;BRILLE;HOTEL
AD0906;forcedguess;0;1;52;4;5;5;9;high;1578;right;SEIFE;DOZENT
AD0906;forcedguess;0;1;53;1;5;5;9;high;3453;right;SALZ;TASSE
AD0906;forcedguess;0;1;54;1;0;5;9;high;3797;left;BOHRER;DETAIL
AD0906;forcedguess;0;1;55;4;0;5;9;high;1734;left;ZEUG;DATUM
AD0906;forcedguess;0;1;56;4;5;5;9;high;2359;right;VENTIL;HEFT
AD0906;forcedguess;0;1;57;4;0;5;9;high;4030;left;PRODUKT;KÖNIG
AD0906;forcedguess;0;1;58;4;1;4;5;high;7078;left;KUPFER;EINTRAG
AD0906;forcedguess;0;1;59;4;1;4;5;high;3187;left;WAAGE;SCHRANK
AD0906;forcedguess;0;1;60;0;1;1;0;high;2141;none;GLOCKE;SAAL
AD0906;forcedguess;0;1;61;1;4;4;5;high;2578;right;GRAD;SPATEN
AD0906;forcedguess;0;1;62;4;4;4;5;high;2171;right;FASSUNG;KOHL
AD0906;forcedguess;0;1;63;4;0;0;-9;high;3296;right;FASS;GEMÜT
AD0906;forcedguess;0;1;64;1;0;5;9;high;1250;left;LACK;VOLK
AD0906;forcedguess;0;1;65;0;1;1;0;high;5108;none;ANLAGE;BAGGER
AD0906;forcedguess;0;1;66;1;4;4;5;high;2187;right;HAUSHALT;BRIEF
AD0906;forcedguess;0;1;67;4;5;5;9;high;2110;right;MOOR;DORF
AD0906;forcedguess;0;1;68;4;0;0;-9;high;2968;right;DAMPFER;STRUKTUR
AD0906;forcedguess;0;1;69;0;4;4;0;high;2719;none;VETTER;LAGERUNG
AD0906;forcedguess;0;1;70;0;4;4;0;high;2483;none;PULT;REGELUNG
AD0906;forcedguess;0;1;71;0;1;1;0;high;6625;none;GELENK;OBER
AD0906;forcedguess;0;1;72;4;1;4;5;high;1812;left;VIEH;KATZE
AD0906;forcedguess;0;1;73;4;5;0;-9;high;1842;left;STAMM;NUSS
AD0906;forcedguess;0;1;74;0;4;4;0;high;2264;none;WAND;QUARK
AD0906;forcedguess;0;1;75;1;4;4;5;high;3953;right;LARVE;SKELETT
AD0906;forcedguess;0;1;76;1;0;5;9;high;2187;left;IMPORT;JUNGE
AD0906;forcedguess;0;1;77;0;4;4;0;high;4468;none;FANG;BUSCH
AD0906;forcedguess;0;1;78;1;1;4;5;high;4014;left;WIRT;KUNDE
AD0906;forcedguess;0;1;79;1;4;4;5;high;4016;right;OPTIK;GEBET
AD0906;forcedguess;0;1;80;4;0;5;9;high;1530;left;APOTHEKE;SCHWAMM
AD0906;forcedguess;0;1;81;1;5;5;9;high;2280;right;STATUS;LEHNE
AD0906;forcedguess;0;1;82;4;2;3;1;high;3608;left;FAHRER;BRAUCH
AD0906;forcedguess;0;1;83;0;4;4;0;high;2703;none;LAUF;ANTLITZ
AD0906;forcedguess;0;1;84;1;1;4;5;high;2546;left;IMBISS;OPTION
AD0906;forcedguess;0;1;85;1;1;4;5;high;4186;left;GELTUNG;HINBLICK
AD0906;forcedguess;0;1;86;0;3;3;0;high;3219;none;KERL;AUFLAGE
AD0906;forcedguess;0;1;87;1;5;0;-9;high;4030;left;MERKMAL;VERKAUF
AD0906;forcedguess;0;1;88;4;0;5;9;high;2266;left;TENNIS;BRUT
AD0906;forcedguess;0;1;89;1;1;4;5;high;2218;left;KARTE;BESEN
AD0906;forcedguess;0;2;0;1;1;4;5;high;4828;left;BÖRSE;ALLIANZ
AD0906;forcedguess;0;2;1;4;4;4;5;high;5109;right;SATTEL;GESTEIN
AD0906;forcedguess;0;2;2;4;5;5;9;high;2327;right;TREND;SEGEN
AD0906;forcedguess;0;2;3;4;1;4;5;high;2875;left;LENKER;NONNE
AD0906;forcedguess;0;2;4;1;4;1;-5;high;2750;left;RUDER;FROST
AD0906;forcedguess;0;2;5;0;4;4;0;high;2891;none;ZWEIG;CHRIST
AD0906;forcedguess;0;2;6;0;4;4;0;high;1937;none;KABINE;RANG
AD0906;forcedguess;0;2;7;0;1;1;0;high;4187;none;TAFEL;EINWAND
AD0906;forcedguess;0;2;8;4;4;1;-5;high;3546;left;TUCH;SPEKTRUM
AD0906;forcedguess;0;2;9;1;0;5;9;high;3530;left;PFÜTZE;REITER
AD0906;forcedguess;0;2;10;4;5;5;9;high;2796;right;EBENE;SYNTAX
AD0906;forcedguess;0;2;11;0;4;4;0;high;3906;none;PREDIGT;PASSAGE
AD0906;forcedguess;0;2;12;1;0;5;9;high;1797;left;KNIE;AMATEUR
AD0906;forcedguess;0;2;13;4;5;5;9;high;2141;right;NIERE;KARTON
AD0906;forcedguess;0;2;14;1;0;5;9;high;2233;left;WESEN;DICHTER
AD0906;forcedguess;0;2;15;4;4;1;-5;high;4562;left;BÜGEL;SPIEGEL
AD0906;forcedguess;0;2;16;4;4;1;-5;high;2609;left;FARM;WERBUNG
AD0906;forcedguess;0;2;17;1;4;1;-5;high;5485;left;LADUNG;TEICH
AD0906;forcedguess;0;2;18;4;5;5;9;high;1187;right;WINTER;JACKE
AD0906;forcedguess;0;2;19;1;0;5;9;high;1953;left;EWIGKEIT;ABSICHT
AD0906;forcedguess;0;2;20;1;1;1;-5;high;7390;right;SIEDLUNG;STEIN
AD0906;forcedguess;0;2;21;4;0;5;9;high;1375;left;MAGNET;DIESEL
AD0906;forcedguess;0;2;22;4;0;5;9;high;1890;left;SCHMUCK;MAUS
AD0906;forcedguess;0;2;23;4;0;5;9;high;1531;left;LEDER;SCHÄDEL
AD0906;forcedguess;0;2;24;4;5;5;9;high;1891;right;ALTAR;ZWERG
AD0906;forcedguess;0;2;25;0;0;0;0;high;2672;none;PERIODE;SÄGE
AD0906;forcedguess;0;2;26;4;0;5;9;high;4000;left;KNOPF;STALL
AD0906;forcedguess;0;2;27;4;5;5;9;high;2282;right;PACKUNG;SZENE
AD0906;forcedguess;0;2;28;0;4;4;0;high;3797;none;ARBEITER;TRAKTOR
AD0906;forcedguess;0;2;29;1;1;4;5;high;3187;left;LUPE;BLECH
AD0906;forcedguess;0;2;30;4;4;4;5;high;6109;right;STATION;SCHILD
AD0906;forcedguess;0;2;31;4;5;5;9;high;2515;right;ZEICHEN;GEWÄHR
AD0906;forcedguess;0;2;32;4;5;5;9;high;1156;right;KONTO;VORRECHT
AD0906;forcedguess;0;2;33;1;3;2;-1;high;3483;left;SEKRETÄR;SATZ
AD0906;forcedguess;0;2;34;4;0;5;9;high;4953;left;HÜGEL;SPANGE
AD0906;forcedguess;0;2;35;0;5;5;0;high;4469;none;BOOT;SCHNEE
AD0906;forcedguess;0;2;36;1;4;4;5;high;2562;right;RICHTER;HEMD
AD0906;forcedguess;0;2;37;0;4;4;0;high;3875;none;ZONE;ZETTEL
AD0906;forcedguess;0;2;38;4;0;5;9;high;3718;left;ANKER;ROBOTER
AD0906;forcedguess;0;2;39;4;0;5;9;high;1062;left;RADIO;AKTIONÄR
AD0906;forcedguess;0;2;40;4;5;0;-9;high;3375;left;QUITTUNG;EINZUG
AD0906;forcedguess;0;2;41;0;4;4;0;high;3952;none;WANDLUNG;RADLER
AD0906;forcedguess;0;2;42;1;4;1;-5;high;1780;left;KOCHTOPF;ROHR
AD0906;forcedguess;0;2;43;0;4;4;0;high;3375;none;AUFNAHME;SCHÜRZE
AD0906;forcedguess;0;2;44;0;1;1;0;high;2578;none;FRUCHT;GANG
AD0906;forcedguess;0;2;45;1;1;4;5;high;2421;left;LEGENDE;WOLLE
AD0906;forcedguess;0;2;46;4;3;3;1;high;4592;right;TELLER;KURVE
AD0906;forcedguess;0;2;47;4;2;3;1;high;9218;left;PARKETT;SITZ
AD0906;forcedguess;0;2;48;0;4;4;0;high;2437;none;BASIS;PFARRER
AD0906;forcedguess;0;2;49;1;1;1;-5;high;3500;right;JÜNGER;WIRKUNG
AD0906;forcedguess;0;2;50;0;1;1;0;high;3796;none;AUSÜBUNG;WEISE
AD0906;forcedguess;0;2;51;1;4;4;5;high;2311;right;VERSION;MÄHNE
AD0906;forcedguess;0;2;52;1;1;4;5;high;2609;left;LEIB;BISCHOF
AD0906;forcedguess;0;2;53;1;3;3;1;high;3828;right;PATRONE;EINKAUF
AD0906;forcedguess;0;2;54;1;4;4;5;high;3328;right;TRANSFER;SACK
AD0906;forcedguess;0;2;55;4;1;4;5;high;3952;left;STUDIO;NASE
AD0906;forcedguess;0;2;56;0;1;1;0;high;3858;none;ANTEIL;SCHANZE
AD0906;forcedguess;0;2;57;4;0;5;9;high;1391;left;MAGAZIN;STECKER
AD0906;forcedguess;0;2;58;0;4;4;0;high;3561;none;HECKE;VENE
AD0906;forcedguess;0;2;59;4;4;4;5;high;3141;right;BERATUNG;JUNGFRAU
AD0906;forcedguess;0;2;60;0;5;5;0;high;5296;none;GELÄNDE;GEBÄUDE
AD0906;forcedguess;0;2;61;1;5;5;9;high;3500;right;RELIGION;FORMAT
AD0906;forcedguess;0;2;62;1;4;4;5;high;2437;right;RENTE;STÄTTE
AD0906;forcedguess;0;2;63;0;1;1;0;high;2280;none;TASCHE;SPRUCH
AD0906;forcedguess;0;2;64;1;0;5;9;high;3796;left;KRANZ;BAUER
AD0906;forcedguess;0;2;65;1;0;5;9;high;2733;left;PFLASTER;LUNGE
AD0906;forcedguess;0;2;66;1;1;4;5;high;2171;left;KRAGEN;DORN
AD0906;forcedguess;0;2;67;1;1;1;-5;high;2921;right;OSTEN;HIRTE
AD0906;forcedguess;0;2;68;4;4;1;-5;high;2421;left;SEKUNDE;RESERVE
AD0906;forcedguess;0;2;69;4;1;1;-5;high;3547;right;MEDIUM;WEISUNG
AD0906;forcedguess;0;2;70;1;4;4;5;high;2593;right;RENDITE;FROSCH
AD0906;forcedguess;0;2;71;1;4;4;5;high;8218;right;VOLUMEN;PALETTE
AD0906;forcedguess;0;2;72;4;5;5;9;high;1546;right;SUCHE;KRAWATTE
AD0906;forcedguess;0;2;73;1;0;0;-9;high;5937;right;FORMEL;FOSSIL
AD0906;forcedguess;0;2;74;4;0;0;-9;high;2139;right;RESULTAT;PAKET
AD0906;forcedguess;0;2;75;1;4;4;5;high;2078;right;DACH;STAND
AD0906;forcedguess;0;2;76;4;4;1;-5;high;2734;left;STOFF;PULLOVER
AD0906;forcedguess;0;2;77;1;1;1;-5;high;1922;right;SEMINAR;HÜRDE
AD0906;forcedguess;0;2;78;1;1;1;-5;high;2953;right;BEDARF;TAXI
AD0906;forcedguess;0;2;79;1;0;5;9;high;1608;left;KLOSTER;DIAKONIE
AD0906;forcedguess;0;2;80;1;0;5;9;high;2406;left;STROH;PRAXIS
AD0906;forcedguess;0;2;81;4;5;5;9;high;2062;right;INSTANZ;KLIMA
AD0906;forcedguess;0;2;82;4;5;5;9;high;1311;right;NICKEL;GLAUBE
AD0906;forcedguess;0;2;83;1;5;5;9;high;3563;right;BAUCH;ANSATZ
AD0906;forcedguess;0;2;84;1;4;4;5;high;5297;right;PRISE;GABEL
AD0906;forcedguess;0;2;85;0;1;1;0;high;4296;none;BEMÜHUNG;ROUTE
AD0906;forcedguess;0;2;86;1;4;1;-5;high;2250;left;NETZWERK;VORGANG
AD0906;forcedguess;0;2;87;1;4;4;5;high;2125;right;LINIE;GEWICHT
AD0906;forcedguess;0;2;88;4;4;4;5;high;5703;right;BELEGUNG;THEKE
AD0906;forcedguess;0;2;89;4;1;4;5;high;1905;left;BILANZ;AKTEUR
AD0906;forcedguess;0;3;0;0;4;4;0;low;4467;none;TRIKOT;AUSDRUCK
AD0906;forcedguess;0;3;1;4;5;5;3;low;2968;right;VORTRAG;KUPPE
AD0906;forcedguess;0;3;2;0;0;0;0;low;2500;none;BERUF;PLANUNG
AD0906;forcedguess;0;3;3;1;0;5;3;low;5782;left;WARE;SYNTHESE
AD0906;forcedguess;0;3;4;4;4;4;2;low;2078;right;MATERIAL;KERAMIK
AD0906;forcedguess;0;3;5;4;5;5;3;low;1233;right;UNSINN;KANAL
AD0906;forcedguess;0;3;6;4;0;5;3;low;1094;left;KOSMETIK;TAGUNG
AD0906;forcedguess;0;3;7;1;5;5;3;low;3219;right;STÜTZE;ETIKETT
AD0906;forcedguess;0;3;8;4;5;5;3;low;1516;right;UMFRAGE;KLEBER
AD0906;forcedguess;0;3;9;1;5;0;-3;low;1921;left;PFLAUME;EINNAHME
AD0906;forcedguess;0;3;10;1;5;5;3;low;1219;right;KAMEL;METZGER
AD0906;forcedguess;0;3;11;1;5;0;-3;low;1687;left;KABEL;MOTORRAD
AD0906;forcedguess;0;3;12;0;4;4;0;low;2718;none;BLOCK;KAUF
AD0906;forcedguess;0;3;13;1;1;4;2;low;2063;left;AUTOMAT;HALLE
AD0906;forcedguess;0;3;14;4;0;0;-3;low;2467;right;ESEL;ÜBUNG
AD0906;forcedguess;0;3;15;1;5;5;3;low;1796;right;MATROSE;LÜCKE
AD0906;forcedguess;0;3;16;4;0;5;3;low;2500;left;PLATTE;GÖNNER
AD0906;forcedguess;0;3;17;4;1;4;2;low;2733;left;ZUSATZ;PFERD
AD0906;forcedguess;0;3;18;1;0;0;-3;low;1875;right;BÜCHSE;TENDENZ
AD0906;forcedguess;0;3;19;4;5;5;3;low;3312;right;STROM;KITTEL
AD0906;forcedguess;0;3;20;0;1;1;0;low;2671;none;OBJEKT;ABRUF
AD0906;forcedguess;0;3;21;4;5;5;3;low;2125;right;HAMSTER;BUND
AD0906;forcedguess;0;3;22;4;0;5;3;low;2437;left;GEBOT;AUSZUG
AD0906;forcedguess;0;3;23;0;5;5;0;low;3172;none;PRÄDIKAT;EICHE
AD0906;forcedguess;0;3;24;0;4;4;0;low;3171;none;SOHLE;RAND
AD0906;forcedguess;0;3;25;4;0;5;3;low;2719;left;MUSEUM;INHALT
AD0906;forcedguess;0;3;26;4;0;5;3;low;1515;left;TURM;SIEGEL
AD0906;forcedguess;0;3;27;1;0;0;-3;low;2358;right;KORALLE;ZWECK
AD0906;forcedguess;0;3;28;4;0;5;3;low;1108;left;BUTTER;VORSTAND
AD0906;forcedguess;0;3;29;0;0;0;0;low;4500;none;PLAKAT;DAMPF
AD0906;forcedguess;0;3;30;1;4;1;-2;low;4484;left;RUDEL;HÄNDLER
AD0906;forcedguess;0;3;31;4;5;5;3;low;1266;right;PHANTOM;ZEILE
AD0906;forcedguess;0;3;32;1;5;0;-3;low;2750;left;HÖHLE;DRAHT
AD0906;forcedguess;0;3;33;4;4;4;2;low;2156;right;ABLAUF;MATERIE
AD0906;forcedguess;0;3;34;1;5;5;3;low;1172;right;PILLE;AUSNAHME
AD0906;forcedguess;0;3;35;1;4;4;2;low;2859;right;GURT;NUTZUNG
AD0906;forcedguess;0;3;36;1;1;4;2;low;2141;left;FIGUR;KANU
AD0906;forcedguess;0;3;37;4;0;5;3;low;1469;left;GUNST;BETRAG
AD0906;forcedguess;0;3;38;0;5;5;0;low;4139;none;BÜRSTE;OPIUM
AD0906;forcedguess;0;3;39;1;4;4;2;low;5312;right;BOHNE;WERBER
AD0906;forcedguess;0;3;40;4;1;4;2;low;3562;left;WACHE;GEBIET
AD0906;forcedguess;0;3;41;4;5;5;3;low;2483;right;TECHNIK;SKIZZE
AD0906;forcedguess;0;3;42;1;5;0;-3;low;1764;left;KANZLER;BEFUGNIS
AD0906;forcedguess;0;3;43;1;4;1;-2;low;5780;left;ZIGARRE;SERUM
AD0906;forcedguess;0;3;44;4;5;5;3;low;2078;right;SOLO;POST
AD0906;forcedguess;0;3;45;4;0;5;3;low;1937;left;MIKROFON;UMSATZ
AD0906;forcedguess;0;3;46;0;0;0;0;low;2311;none;PILZ;SKALA
AD0906;forcedguess;0;3;47;0;4;4;0;low;3313;none;SCHICHT;SCHUB
AD0906;forcedguess;0;3;48;0;0;0;0;low;2593;none;SENDUNG;BOTE
AD0906;forcedguess;0;3;49;4;4;1;-2;low;2453;left;REDE;KIOSK
AD0906;forcedguess;0;3;50;1;0;5;3;low;2405;left;VERLAUF;REDNER
AD0906;forcedguess;0;3;51;1;4;4;2;low;3016;right;GETREIDE;EISEN
AD0906;forcedguess;0;3;52;4;1;4;2;low;4796;left;SCHNITT;KANNE
AD0906;forcedguess;0;3;53;0;5;5;0;low;2250;none;GNADE;HINSICHT
AD0906;forcedguess;0;3;54;1;5;5;3;low;1344;right;BREZEL;MELDUNG
AD0906;forcedguess;0;3;55;4;4;1;-2;low;4500;left;MASCHINE;VERBUND
AD0906;forcedguess;0;3;56;0;4;4;0;low;2453;none;SCHEITEL;AMPEL
AD0906;forcedguess;0;3;57;4;0;5;3;low;1437;left;LATTE;RUNDWEG
AD0906;forcedguess;0;3;58;4;0;5;3;low;2328;left;LISTE;GEHIRN
AD0906;forcedguess;0;3;59;1;4;4;2;low;5014;right;HAUBE;SCHNAPS
AD0906;forcedguess;0;3;60;0;0;0;0;low;4843;none;SCHRIFT;MACHER
AD0906;forcedguess;0;3;61;1;0;0;-3;low;1453;right;STREIFEN;SYMBOL
AD0906;forcedguess;0;3;62;1;1;4;2;low;1686;left;MAPPE;GEPÄCK
AD0906;forcedguess;0;3;63;1;4;1;-2;low;2312;left;TEXT;BAUWERK
AD0906;forcedguess;0;3;64;4;0;5;3;low;1797;left;AUSSCHAU;MÖBEL
AD0906;forcedguess;0;3;65;4;5;5;3;low;2250;right;SCHLEIER;BAHN
AD0906;forcedguess;0;3;66;4;0;0;-3;low;2937;right;ZUSCHLAG;DECKUNG
AD0906;forcedguess;0;3;67;4;5;5;3;low;1594;right;MODELL;INDEX
AD0906;forcedguess;0;3;68;1;5;0;-3;low;3077;left;FACKEL;BIER
AD0906;forcedguess;0;3;69;4;5;5;3;low;2875;right;STAUB;BEUTEL
AD0906;forcedguess;0;3;70;1;4;1;-2;low;2516;left;RAUPE;GALERIE
AD0906;forcedguess;0;3;71;1;4;1;-2;low;2483;left;WINKEL;BETREFF
AD0906;forcedguess;0;3;72;0;4;4;0;low;2766;none;SEKTOR;MEHRHEIT
AD0906;forcedguess;0;3;73;1;5;0;-3;low;1985;left;ZUCKER;MODE
AD0906;forcedguess;0;3;74;1;5;5;3;low;6655;right;SCHUPPEN;LOCH
AD0906;forcedguess;0;3;75;1;4;4;2;low;1796;right;KÜBEL;TABELLE
AD0906;forcedguess;0;3;76;1;4;4;2;low;4953;right;FRAGMENT;VERZICHT
AD0906;forcedguess;0;3;77;4;5;5;3;low;2485;right;SCHLAMM;AUSKUNFT
AD0906;forcedguess;0;3;78;4;5;0;-3;low;2234;left;SENDER;KLAMOTTE
AD0906;forcedguess;0;3;79;4;1;1;-2;low;2937;right;AUFSATZ;PASS
AD0906;forcedguess;0;3;80;1;4;4;2;low;2530;right;KRIPPE;APPARAT
AD0906;forcedguess;0;3;81;1;1;1;-2;low;5577;right;BLEI;BESTECK
AD0906;forcedguess;0;3;82;0;0;0;0;low;2188;none;PRIESTER;STUDIE
AD0906;forcedguess;0;3;83;4;0;5;3;low;3796;left;QUOTE;PHYSIK
AD0906;forcedguess;0;3;84;4;4;4;2;low;3233;right;BEGRIFF;ZAHN
AD0906;forcedguess;0;3;85;0;0;0;0;low;6562;none;FOLIE;MEHL
AD0906;forcedguess;0;3;86;1;0;5;3;low;2171;left;SUBSTANZ;STRAUCH
AD0906;forcedguess;0;3;87;1;4;4;2;low;3078;right;PEDAL;NACHWEIS
AD0906;forcedguess;0;3;88;1;5;0;-3;low;3391;left;ANBAU;SCHATTEN
AD0906;forcedguess;0;3;89;0;1;1;0;low;3718;none;SAMMLUNG;NORM
AF0402;forcedguess;0;0;0;1;0;5;9;high;7562;left;ZWIEBEL;ERLÖS
AF0402;forcedguess;0;0;1;4;0;5;9;high;3796;left;SCHWAMM;GRAD
AF0402;forcedguess;0;0;2;1;2;3;1;high;9157;left;STIRN;TERMIN
AF0402;forcedguess;0;0;3;1;0;5;9;high;3437;left;GARDE;PFEIL
AF0402;forcedguess;0;0;4;0;5;5;0;high;3546;none;ELLBOGEN;MANTEL
AF0402;forcedguess;0;0;5;1;5;5;9;high;2703;right;BRONZE;GEWÄHR
AF0402;forcedguess;0;0;6;1;5;0;-9;high;2812;left;ENDUNG;GEBIET
AF0402;forcedguess;0;0;7;1;2;2;-1;high;7641;right;KATALOG;PASSAGE
AF0402;forcedguess;0;0;8;4;0;5;9;high;1766;left;SEGEL;WANNE
AF0402;forcedguess;0;0;9;1;4;4;5;high;3671;right;WAAGE;STANGE
AF0402;forcedguess;0;0;10;4;5;5;9;high;1546;right;NUSS;BAHNHOF
AF0402;forcedguess;0;0;11;1;5;5;9;high;2359;right;HAMSTER;ANKER
AF0402;forcedguess;0;0;12;0;5;5;0;high;2547;none;BEUTEL;ZUCHT
AF0402;forcedguess;0;0;13;4;5;5;9;high;3187;right;UMFRAGE;BLASE
AF0402;forcedguess;0;0;14;4;0;5;9;high;2046;left;HIRTE;KOFFER
AF0402;forcedguess;0;0;15;1;5;5;9;high;2453;right;KERL;ANBAU
AF0402;forcedguess;0;0;16;4;5;5;9;high;2655;right;ALGE;RELIGION
AF0402;forcedguess;0;0;17;4;5;5;9;high;1515;right;LAUF;ADER
AF0402;forcedguess;0;0;18;1;1;4;5;high;2500;left;MANDANT;LABOR
AF0402;forcedguess;0;0;19;0;5;5;0;high;2671;none;RADLER;HAUT
AF0402;forcedguess;0;0;20;4;0;5;9;high;1781;left;MÄHNE;TABELLE
AF0402;forcedguess;0;0;21;1;2;2;-1;high;3391;right;LADUNG;APPARAT
AF0402;forcedguess;0;0;22;4;0;5;9;high;1281;left;KRANZ;MATRIX
AF0402;forcedguess;0;0;23;1;5;5;9;high;2359;right;AUSWEIS;RAND
AF0402;forcedguess;0;0;24;1;5;5;9;high;1563;right;SPATEN;KETTE
AF0402;forcedguess;0;0;25;4;5;5;9;high;812;right;FACKEL;SCHANZE
AF0402;forcedguess;0;0;26;1;0;5;9;high;2265;left;ZONE;BILANZ
AF0402;forcedguess;0;0;27;4;0;5;9;high;1859;left;STEIN;BLEI
AF0402;forcedguess;0;0;28;1;0;5;9;high;1891;left;STRUKTUR;ZELT
AF0402;forcedguess;0;0;29;1;4;1;-5;high;3108;left;SCHUH;ANSICHT
AF0402;forcedguess;0;0;30;1;0;0;-9;high;2407;right;BELEGUNG;RINDE
AF0402;forcedguess;0;0;31;1;0;5;9;high;1344;left;NEIGUNG;GANS
AF0402;forcedguess;0;0;32;0;3;3;0;high;3750;none;OBER;SCHNECKE
AF0402;forcedguess;0;0;33;1;5;5;9;high;3907;right;KLIMA;PRAXIS
AF0402;forcedguess;0;0;34;4;0;5;9;high;1671;left;SKIZZE;JACKE
AF0402;forcedguess;0;0;35;1;5;5;9;high;2921;right;TOPF;ZAUN
AF0402;forcedguess;0;0;36;4;0;5;9;high;1766;left;FIGUR;PÄCKCHEN
AF0402;forcedguess;0;0;37;0;2;2;0;high;2797;none;DOSE;METZGER
AF0402;forcedguess;0;0;38;4;5;5;9;high;2250;right;POLIZIST;OSTEN
AF0402;forcedguess;0;0;39;4;0;5;9;high;1953;left;MAGEN;EINNAHME
AF0402;forcedguess;0;0;40;0;5;5;0;high;2030;none;AUTOMAT;THEKE
AF0402;forcedguess;0;0;41;4;0;5;9;high;2000;left;OBJEKT;GREMIUM
AF0402;forcedguess;0;0;42;1;4;4;5;high;1985;right;KREIDE;GETREIDE
AF0402;forcedguess;0;0;43;4;5;5;9;high;4719;right;SCHNAPS;MINIMUM
AF0402;forcedguess;0;0;44;1;5;5;9;high;1391;right;NADEL;STÜTZE
AF0402;forcedguess;0;0;45;4;5;5;9;high;2172;right;BÜGEL;FASSUNG
AF0402;forcedguess;0;0;46;4;5;5;9;high;1344;right;FORMAT;TRUPPE
AF0402;forcedguess;0;0;47;1;5;5;9;high;4250;right;KABINE;WIRKUNG
AF0402;forcedguess;0;0;48;4;5;0;-9;high;2532;left;WERBER;MUSTER
AF0402;forcedguess;0;0;49;4;5;5;9;high;2266;right;AUSGABE;ZITAT
AF0402;forcedguess;0;0;50;4;5;5;9;high;1376;right;MATERIE;LARVE
AF0402;forcedguess;0;0;51;0;3;3;0;high;2562;none;HÜRDE;DORN
AF0402;forcedguess;0;0;52;0;3;3;0;high;2953;none;BEWOHNER;GNADE
AF0402;forcedguess;0;0;53;1;2;3;1;high;4547;left;VOLUMEN;MAST
AF0402;forcedguess;0;0;54;4;5;5;9;high;1968;right;SCHILD;BESTAND
AF0402;forcedguess;0;0;55;1;0;5;9;high;2422;left;WÄHRUNG;MAGNET
AF0402;forcedguess;0;0;56;1;0;5;9;high;1344;left;GABEL;WINKEL
AF0402;forcedguess;0;0;57;4;5;5;9;high;1796;right;KLÄRUNG;KNIE
AF0402;forcedguess;0;0;58;0;4;4;0;high;2531;none;BAUWERK;MÖNCH
AF0402;forcedguess;0;0;59;0;4;4;0;high;1937;none;KITTEL;TAGEBUCH
AF0402;forcedguess;0;0;60;4;5;5;9;high;1250;right;NORM;KONZERN
AF0402;forcedguess;0;0;61;4;0;5;9;high;2312;left;WENDUNG;LAUFBAHN
AF0402;forcedguess;0;0;62;4;3;3;1;high;2828;right;EXPORT;JUNGFRAU
AF0402;forcedguess;0;0;63;0;2;2;0;high;4577;none;KNOPF;LEITUNG
AF0402;forcedguess;0;0;64;4;1;4;5;high;1844;left;GEWERBE;FAHRZEUG
AF0402;forcedguess;0;0;65;1;5;5;9;high;2078;right;BERATUNG;PFLAUME
AF0402;forcedguess;0;0;66;1;4;1;-5;high;2546;left;GRAMM;GLAUBE
AF0402;forcedguess;0;0;67;4;1;4;5;high;3202;left;SEGEN;STROM
AF0402;forcedguess;0;0;68;0;4;4;0;high;1734;none;MALER;SCHRIFT
AF0402;forcedguess;0;0;69;0;0;0;0;high;2187;none;ANHÄNGER;EIGNUNG
AF0402;forcedguess;0;0;70;4;0;5;9;high;1171;left;BOOT;PATRONE
AF0402;forcedguess;0;0;71;4;0;5;9;high;1891;left;ANTEIL;BINDUNG
AF0402;forcedguess;0;0;72;0;3;3;0;high;1828;none;FOLIE;WOLLE
AF0402;forcedguess;0;0;73;4;5;5;9;high;1967;right;MUSEUM;KUPPLUNG
AF0402;forcedguess;0;0;74;4;0;5;9;high;2594;left;GARDINE;KUNDE
AF0402;forcedguess;0;0;75;1;4;1;-5;high;3828;left;FREQUENZ;VERSUCH
AF0402;forcedguess;0;0;76;0;4;4;0;high;1828;none;ECKE;PIRAT
AF0402;forcedguess;0;0;77;1;3;2;-1;high;2391;left;HÜTTE;TROPFEN
AF0402;forcedguess;0;0;78;1;2;3;1;high;2530;left;GLOCKE;BECHER
AF0402;forcedguess;0;0;79;1;3;3;1;high;2780;right;GELENK;TISCH
AF0402;forcedguess;0;0;80;1;3;3;1;high;1750;right;KURVE;TRICK
AF0402;forcedguess;0;0;81;4;3;2;-1;high;1343;left;TUCH;KURS
AF0402;forcedguess;0;0;82;4;5;5;9;high;1735;right;GEPÄCK;VERTRAG
AF0402;forcedguess;0;0;83;1;2;3;1;high;2875;left;ANSPRUCH;ZEILE
AF0402;forcedguess;0;0;84;0;3;3;0;high;3296;none;PATE;ENTE
AF0402;forcedguess;0;0;85;4;3;3;1;high;2219;right;FAHRER;MOTOR
AF0402;forcedguess;0;0;86;0;3;3;0;high;1547;none;STUDIE;MASCHINE
AF0402;forcedguess;0;0;87;1;3;2;-1;high;1733;left;REZEPT;ANSCHEIN
AF0402;forcedguess;0;0;88;1;3;3;1;high;1438;right;SERIE;BART
AF0402;forcedguess;0;0;89;0;3;3;0;high;1812;none;KLAMOTTE;SPRECHER
AF0402;forcedguess;0;1;0;1;0;5;3;low;2733;left;HANDEL;COMPUTER
AF0402;forcedguess;0;1;1;1;0;5;3;low;2953;left;AKTIONÄR;AUSZUG
AF0402;forcedguess;0;1;2;1;5;5;3;low;2718;right;WACHE;NATION
AF0402;forcedguess;0;1;3;1;5;5;3;low;1641;right;EINZUG;SPIRALE
AF0402;forcedguess;0;1;4;0;5;5;0;low;1905;none;SCHEITEL;GELÄNDE
AF0402;forcedguess;0;1;5;1;0;5;3;low;2891;left;ZUSATZ;FISCH
AF0402;forcedguess;0;1;6;4;0;5;3;low;1437;left;STOFF;PYRAMIDE
AF0402;forcedguess;0;1;7;1;0;5;3;low;1250;left;BODEN;BUSCH
AF0402;forcedguess;0;1;8;0;5;5;0;low;2875;none;RUTSCHE;TREND
AF0402;forcedguess;0;1;9;0;4;4;0;low;1500;none;PHASE;ZETTEL
AF0402;forcedguess;0;1;10;1;5;5;3;low;1734;right;DIENST;STUHL
AF0402;forcedguess;0;1;11;1;1;4;2;low;1875;left;VERBUND;LEUCHTE
AF0402;forcedguess;0;1;12;4;0;5;3;low;2141;left;FLASCHE;REST
AF0402;forcedguess;0;1;13;4;0;0;-3;low;1187;right;PASS;EINKAUF
AF0402;forcedguess;0;1;14;1;5;5;3;low;1359;right;MACHER;VIEH
AF0402;forcedguess;0;1;15;0;0;0;0;low;2608;none;STROPHE;GUSS
AF0402;forcedguess;0;1;16;4;5;0;-3;low;2032;left;HERGANG;ABDRUCK
AF0402;forcedguess;0;1;17;4;5;5;3;low;890;right;REGAL;WURF
AF0402;forcedguess;0;1;18;1;0;5;3;low;1703;left;HAHN;DIALOG
AF0402;forcedguess;0;1;19;1;0;5;3;low;1328;left;ESEL;PROFI
AF0402;forcedguess;0;1;20;1;0;0;-3;low;1327;right;TATSACHE;SIEGEL
AF0402;forcedguess;0;1;21;0;0;0;0;low;1453;none;SITZUNG;KANZLER
AF0402;forcedguess;0;1;22;4;5;5;3;low;2530;right;KIES;AGENT
AF0402;forcedguess;0;1;23;1;5;5;3;low;1641;right;STRAUCH;KORALLE
AF0402;forcedguess;0;1;24;4;0;5;3;low;1750;left;KASSETTE;TINTE
AF0402;forcedguess;0;1;25;1;5;5;3;low;1577;right;BEWERBER;GÖNNER
AF0402;forcedguess;0;1;26;1;5;5;3;low;1030;right;GALERIE;KOCHTOPF
AF0402;forcedguess;0;1;27;4;0;5;3;low;2092;left;WERTUNG;SALZ
AF0402;forcedguess;0;1;28;1;4;4;2;low;2875;right;ZIMMER;KÖNIG
AF0402;forcedguess;0;1;29;0;0;0;0;low;1812;none;BENZIN;ULME
AF0402;forcedguess;0;1;30;0;0;0;0;low;1703;none;NAGEL;ORDEN
AF0402;forcedguess;0;1;31;1;0;5;3;low;1375;left;GESCHÄFT;RADIUS
AF0402;forcedguess;0;1;32;4;5;5;3;low;1813;right;WEISUNG;REIGEN
AF0402;forcedguess;0;1;33;1;5;0;-3;low;2187;left;JÜNGER;ZEIGER
AF0402;forcedguess;0;1;34;4;5;0;-3;low;1860;left;DIESEL;AUSDRUCK
AF0402;forcedguess;0;1;35;1;2;3;1;low;1781;left;KÄUFER;MÄDEL
AF0402;forcedguess;0;1;36;1;4;4;2;low;1483;right;SCHÄDEL;EULE
AF0402;forcedguess;0;1;37;0;1;1;0;low;1953;none;HÄLFTE;AKTEUR
AF0402;forcedguess;0;1;38;1;2;2;-1;low;1703;right;RECHTECK;WIRT
AF0402;forcedguess;0;1;39;4;5;5;3;low;1750;right;JUNGE;SYNTAX
AF0402;forcedguess;0;1;40;0;2;2;0;low;1766;none;VOLK;HUHN
AF0402;forcedguess;0;1;41;1;2;3;1;low;1687;left;PHRASE;POST
AF0402;forcedguess;0;1;42;1;1;4;2;low;1812;left;TASTE;ROHR
AF0402;forcedguess;0;1;43;1;0;0;-3;low;1812;right;ERDBALL;BUCHUNG
AF0402;forcedguess;0;1;44;4;0;5;3;low;1328;left;SAMMLER;FELD
AF0402;forcedguess;0;1;45;0;3;3;0;low;2687;none;MOTORRAD;BASS
AF0402;forcedguess;0;1;46;4;2;3;1;low;1405;left;TELLER;SYMPTOM
AF0402;forcedguess;0;1;47;4;4;4;2;low;1983;right;REPUBLIK;SAAT
AF0402;forcedguess;0;1;48;4;4;1;-2;low;1422;left;PINSEL;AUFLAGE
AF0402;forcedguess;0;1;49;0;4;4;0;low;1125;none;EFFEKT;KUGEL
AF0402;forcedguess;0;1;50;1;4;1;-2;low;1421;left;FELL;AUFTRAG
AF0402;forcedguess;0;1;51;4;5;5;3;low;1218;right;SERUM;WANDLUNG
AF0402;forcedguess;0;1;52;4;4;4;2;low;1641;right;RICHTER;FERSE
AF0402;forcedguess;0;1;53;4;5;5;3;low;1656;right;ZUGANG;KNABE
AF0402;forcedguess;0;1;54;1;5;0;-3;low;1937;left;EINHEIT;ENTWURF
AF0402;forcedguess;0;1;55;0;1;1;0;low;1609;none;TURM;SENDUNG
AF0402;forcedguess;0;1;56;4;1;4;2;low;1485;left;DOKUMENT;TREPPE
AF0402;forcedguess;0;1;57;1;0;0;-3;low;1532;right;MODELL;STREIFEN
AF0402;forcedguess;0;1;58;0;0;0;0;low;1484;none;NASE;EINTRAG
AF0402;forcedguess;0;1;59;0;2;2;0;low;1937;none;PERÜCKE;GURT
AF0402;forcedguess;0;1;60;1;0;5;3;low;1516;left;EISEN;RITTER
AF0402;forcedguess;0;1;61;4;3;3;1;low;1687;right;FLÄCHE;UNSINN
AF0402;forcedguess;0;1;62;1;2;2;-1;low;1719;right;GEBOT;QUARK
AF0402;forcedguess;0;1;63;4;4;1;-2;low;2812;left;ZIFFER;SYNTHESE
AF0402;forcedguess;0;1;64;4;5;5;3;low;1062;right;FINGER;KRONE
AF0402;forcedguess;0;1;65;4;5;5;3;low;983;right;LACK;MARKE
AF0402;forcedguess;0;1;66;4;1;4;2;low;2000;left;ADRESSE;VETTER
AF0402;forcedguess;0;1;67;1;4;1;-2;low;1718;left;MAPPE;HORN
AF0402;forcedguess;0;1;68;0;4;4;0;low;1358;none;SCHRANK;LEHNE
AF0402;forcedguess;0;1;69;1;0;0;-3;low;1453;right;BREZEL;SCHALTER
AF0402;forcedguess;0;1;70;4;0;0;-3;low;1547;right;ZANGE;SATZ
AF0402;forcedguess;0;1;71;1;3;3;1;low;2780;right;LEGENDE;LOCHER
AF0402;forcedguess;0;1;72;0;5;5;0;low;1952;none;AUSSCHAU;AUSÜBUNG
AF0402;forcedguess;0;1;73;0;1;1;0;low;1671;none;SCHICHT;WARTUNG
AF0402;forcedguess;0;1;74;1;4;4;2;low;2062;right;EPISODE;SONATE
AF0402;forcedguess;0;1;75;4;2;2;-1;low;1625;right;QUADRAT;SCHUPPEN
AF0402;forcedguess;0;1;76;1;1;4;2;low;1547;left;KOSMETIK;PLANET
AF0402;forcedguess;0;1;77;4;0;5;3;low;1780;left;GESTEIN;KUPPE
AF0402;forcedguess;0;1;78;0;0;0;0;low;1266;none;FRUCHT;ANZEIGE
AF0402;forcedguess;0;1;79;4;0;5;3;low;1234;left;MERKMAL;LÖFFEL
AF0402;forcedguess;0;1;80;4;1;4;2;low;2141;left;REPTIL;BASIS
AF0402;forcedguess;0;1;81;4;2;3;1;low;1672;left;SCHATTEN;MODE
AF0402;forcedguess;0;1;82;4;2;2;-1;low;2328;right;KLINKE;RESULTAT
AF0402;forcedguess;0;1;83;1;2;3;1;low;1625;left;PROFIL;STOCK
AF0402;forcedguess;0;1;84;1;1;1;-2;low;1750;right;LEBER;DING
AF0402;forcedguess;0;1;85;4;2;2;-1;low;2406;right;HÖRER;BOHRER
AF0402;forcedguess;0;1;86;4;1;1;-2;low;1358;right;SCHUB;WAND
AF0402;forcedguess;0;1;87;4;2;3;1;low;2108;left;MOTTO;PEGEL
AF0402;forcedguess;0;1;88;4;0;5;3;low;3046;left;VERKAUF;HEBEL
AF0402;forcedguess;0;1;89;4;5;5;3;low;1562;right;AUSGANG;DETAIL
AF0402;forcedguess;0;2;0;4;5;5;9;high;3796;right;EBENE;VOTUM
AF0402;forcedguess;0;2;1;1;5;5;9;high;2093;right;KOHL;BRIEF
AF0402;forcedguess;0;2;2;1;5;5;9;high;1264;right;ANGEL;GEMÜT
AF0402;forcedguess;0;2;3;1;1;1;-5;high;3375;right;PFAD;SEMINAR
AF0402;forcedguess;0;2;4;0;0;0;0;high;2952;none;MITTAG;DIAKONIE
AF0402;forcedguess;0;2;5;1;0;5;9;high;1217;left;TARIF;LÄNGE
AF0402;forcedguess;0;2;6;1;0;5;9;high;1500;left;SPALTE;WESEN
AF0402;forcedguess;0;2;7;4;5;0;-9;high;1750;left;PLAN;BESTECK
AF0402;forcedguess;0;2;8;4;5;5;9;high;1468;right;PFÜTZE;KÜBEL
AF0402;forcedguess;0;2;9;4;5;0;-9;high;1125;left;KAMEL;SKALA
AF0402;forcedguess;0;2;10;0;0;0;0;high;4516;none;AUSWAHL;STROH
AF0402;forcedguess;0;2;11;4;5;5;9;high;1859;right;KNOCHEN;KISTE
AF0402;forcedguess;0;2;12;1;5;5;9;high;1328;right;PFARRER;SEIL
AF0402;forcedguess;0;2;13;1;5;0;-9;high;1734;left;PEDAL;WAGEN
AF0402;forcedguess;0;2;14;4;5;5;9;high;1500;right;PARKETT;ETAGE
AF0402;forcedguess;0;2;15;4;0;5;9;high;1578;left;EXEMPLAR;LINIE
AF0402;forcedguess;0;2;16;1;0;0;-9;high;1594;right;WAHRUNG;UMGANG
AF0402;forcedguess;0;2;17;1;5;0;-9;high;2281;left;SCHNITT;REGEL
AF0402;forcedguess;0;2;18;4;5;0;-9;high;1062;left;MONITOR;TRANSFER
AF0402;forcedguess;0;2;19;0;0;0;0;high;3141;none;FAHNE;SCHINKEN
AF0402;forcedguess;0;2;20;0;0;0;0;high;1500;none;FERNROHR;KREUZ
AF0402;forcedguess;0;2;21;4;5;5;9;high;2077;right;TROMPETE;SOHLE
AF0402;forcedguess;0;2;22;4;4;4;5;high;2515;right;SITTE;PULLOVER
AF0402;forcedguess;0;2;23;4;2;2;-1;high;3765;right;STAUB;ZENTRUM
AF0402;forcedguess;0;2;24;1;0;0;-9;high;1812;right;HÄNGER;STÄTTE
AF0402;forcedguess;0;2;25;4;0;5;9;high;1500;left;KANAL;NOTIZ
AF0402;forcedguess;0;2;26;0;4;4;0;high;2015;none;KERN;SYSTEM
AF0402;forcedguess;0;2;27;1;4;4;5;high;2515;right;INHALT;ZUCKER
AF0402;forcedguess;0;2;28;4;5;5;9;high;1453;right;VORGANG;ZIRKUS
AF0402;forcedguess;0;2;29;0;0;0;0;high;1405;none;TAKT;GERÄT
AF0402;forcedguess;0;2;30;4;0;5;9;high;1500;left;HECKE;VIDEO
AF0402;forcedguess;0;2;31;1;2;3;1;high;1952;left;PACKUNG;GEHORSAM
AF0402;forcedguess;0;2;32;1;0;5;9;high;2250;left;BEDARF;DRESSUR
AF0402;forcedguess;0;2;33;1;3;2;-1;high;4250;left;DIENER;BAUER
AF0402;forcedguess;0;2;34;1;0;5;9;high;1750;left;PHYSIK;BAUCH
AF0402;forcedguess;0;2;35;1;0;0;-9;high;1922;right;REGELUNG;KLAMMER
AF0402;forcedguess;0;2;36;4;0;5;9;high;2030;left;KLOSTER;KAUF
AF0402;forcedguess;0;2;37;0;1;1;0;high;1936;none;KORB;STADIUM
AF0402;forcedguess;0;2;38;4;0;5;9;high;1375;left;TRANSIT;TRAKTOR
AF0402;forcedguess;0;2;39;1;4;4;5;high;2469;right;PLANUNG;FARM
AF0402;forcedguess;0;2;40;4;5;0;-9;high;2172;left;BOGEN;SACK
AF0402;forcedguess;0;2;41;4;0;5;9;high;1875;left;LIMIT;SOLO
AF0402;forcedguess;0;2;42;0;0;0;0;high;1265;none;ZWILLING;STIFT
AF0402;forcedguess;0;2;43;1;0;5;9;high;1687;left;BRILLE;ALLIANZ
AF0402;forcedguess;0;2;44;1;1;1;-5;high;2625;right;ZUNGE;VENTIL
AF0402;forcedguess;0;2;45;1;2;2;-1;high;3594;right;STRICH;VARIANTE
AF0402;forcedguess;0;2;46;1;0;0;-9;high;1844;right;TANK;MATERIAL
AF0402;forcedguess;0;2;47;4;5;5;9;high;2046;right;PRODUKT;EPOCHE
AF0402;forcedguess;0;2;48;1;2;2;-1;high;3031;right;BRUT;RAST
AF0402;forcedguess;0;2;49;0;3;3;0;high;2391;none;SCHOTTER;BIRNE
AF0402;forcedguess;0;2;50;1;3;3;1;high;2187;right;KINN;SAAL
AF0402;forcedguess;0;2;51;1;3;3;1;high;1797;right;SCHEUNE;EWIGKEIT
AF0402;forcedguess;0;2;52;4;0;0;-9;high;2922;right;LUPE;ARGUMENT
AF0402;forcedguess;0;2;53;1;0;0;-9;high;1437;right;BURG;PFERD
AF0402;forcedguess;0;2;54;4;1;4;5;high;3593;left;MISCHUNG;KELLER
AF0402;forcedguess;0;2;55;1;1;4;5;high;1312;left;RÜSTUNG;SCHLAMM
AF0402;forcedguess;0;2;56;4;5;5;9;high;2046;right;INSTITUT;BERUF
AF0402;forcedguess;0;2;57;0;4;4;0;high;2483;none;BEMÜHUNG;VORTAG
AF0402;forcedguess;0;2;58;1;2;3;1;high;2765;left;PRISE;MÜHLE
AF0402;forcedguess;0;2;59;1;1;4;5;high;1750;left;TUNNEL;URSACHE
AF0402;forcedguess;0;2;60;4;0;0;-9;high;1765;right;WURST;ZEICHEN
AF0402;forcedguess;0;2;61;4;5;0;-9;high;1750;left;LÜCKE;KAMMER
AF0402;forcedguess;0;2;62;4;3;3;1;high;3125;right;HINSICHT;ABRUF
AF0402;forcedguess;0;2;63;4;4;4;5;high;2516;right;ERWÄGUNG;TRIKOT
AF0402;forcedguess;0;2;64;4;4;4;5;high;1625;right;SPIEGEL;PLAKAT
AF0402;forcedguess;0;2;65;4;1;4;5;high;1952;left;BEGRIFF;VORNAME
AF0402;forcedguess;0;2;66;1;2;3;1;high;2375;left;DIREKTOR;URHEBER
AF0402;forcedguess;0;2;67;1;2;3;1;high;1625;left;REGIE;HEMD
AF0402;forcedguess;0;2;68;0;4;4;0;high;2937;none;KANDIDAT;SIEDLUNG
AF0402;forcedguess;0;2;69;0;0;0;0;high;1983;none;NUMMER;DORF
AF0402;forcedguess;0;2;70;4;0;5;9;high;1155;left;SCHWEIN;BEIN
AF0402;forcedguess;0;2;71;4;2;2;-1;high;2390;right;LOCH;LEIB
AF0402;forcedguess;0;2;72;4;0;0;-9;high;2109;right;VORRECHT;RENTE
AF0402;forcedguess;0;2;73;0;1;1;0;high;2094;none;NICKEL;NUTZUNG
AF0402;forcedguess;0;2;74;4;3;3;1;high;1953;right;BLATT;LAGERUNG
AF0402;forcedguess;0;2;75;0;1;1;0;high;1953;none;MASKE;ONKEL
AF0402;forcedguess;0;2;76;0;5;5;0;high;2593;none;ETIKETT;FROST
AF0402;forcedguess;0;2;77;1;4;1;-5;high;2094;left;SCHEIBE;GEBÄUDE
AF0402;forcedguess;0;2;78;0;0;0;0;high;2000;none;RENDITE;BISCHOF
AF0402;forcedguess;0;2;79;4;0;5;9;high;1390;left;METALL;VENE
AF0402;forcedguess;0;2;80;0;1;1;0;high;2891;none;ANTLITZ;EINGABE
AF0402;forcedguess;0;2;81;4;2;3;1;high;1812;left;ANLASS;ARENA
AF0402;forcedguess;0;2;82;1;1;1;-5;high;1467;right;BLECH;STATUS
AF0402;forcedguess;0;2;83;1;2;3;1;high;2406;left;SCHLEIER;PALETTE
AF0402;forcedguess;0;2;84;1;4;4;5;high;2172;right;QUITTUNG;PFANNE
AF0402;forcedguess;0;2;85;4;1;4;5;high;3875;left;KASTEN;KRAGEN
AF0402;forcedguess;0;2;86;1;2;3;1;high;1766;left;LUNGE;UMBAU
AF0402;forcedguess;0;2;87;1;5;0;-9;high;1672;left;SUPPE;NETZ
AF0402;forcedguess;0;2;88;4;3;2;-1;high;2108;left;DRAHT;SCHIRM
AF0402;forcedguess;0;2;89;0;1;1;0;high;1609;none;KÄFER;TECHNIK
AF0402;forcedguess;0;3;0;1;0;0;-3;low;2625;right;SCHMUCK;FABRIK
AF0402;forcedguess;0;3;1;4;0;0;-3;low;2421;right;EIMER;ÄNDERUNG
AF0402;forcedguess;0;3;2;1;2;3;1;low;1780;left;SOCKEL;PUPPE
AF0402;forcedguess;0;3;3;1;5;5;3;low;2922;right;SEIFE;KATZE
AF0402;forcedguess;0;3;4;4;5;5;3;low;828;right;LEITER;PILLE
AF0402;forcedguess;0;3;5;1;1;4;2;low;2125;left;PUFFER;CHRIST
AF0402;forcedguess;0;3;6;1;0;5;3;low;1483;left;SÄULE;BRETT
AF0402;forcedguess;0;3;7;1;0;0;-3;low;1656;right;MATROSE;ARCHIV
AF0402;forcedguess;0;3;8;4;2;3;1;low;2016;left;KABEL;DEUTUNG
AF0402;forcedguess;0;3;9;4;2;3;1;low;1406;left;KLEBER;VASE
AF0402;forcedguess;0;3;10;1;3;2;-1;low;1625;left;WEISE;KRAUT
AF0402;forcedguess;0;3;11;4;0;5;3;low;2015;left;FÜRST;DICHTER
AF0402;forcedguess;0;3;12;1;0;5;3;low;1280;left;WERBUNG;ZAHN
AF0402;forcedguess;0;3;13;4;5;0;-3;low;1828;left;DOZENT;ANSATZ
AF0402;forcedguess;0;3;14;0;5;5;0;low;1890;none;VERLAUF;LAUB
AF0402;forcedguess;0;3;15;1;4;1;-2;low;2015;left;ANHANG;TEPPICH
AF0402;forcedguess;0;3;16;0;0;0;0;low;2016;none;HÜGEL;PATER
AF0402;forcedguess;0;3;17;4;2;3;1;low;1203;left;DACH;STALL
AF0402;forcedguess;0;3;18;1;4;1;-2;low;2828;left;RUNDWEG;PRINZIP
AF0402;forcedguess;0;3;19;0;0;0;0;low;1781;none;KRAWATTE;PATENT
AF0402;forcedguess;0;3;20;1;2;3;1;low;2280;left;MAGAZIN;MEHL
AF0402;forcedguess;0;3;21;4;5;5;3;low;2233;right;HANDWERK;BEIHILFE
AF0402;forcedguess;0;3;22;4;5;0;-3;low;1171;left;SKELETT;FORMEL
AF0402;forcedguess;0;3;23;4;0;5;3;low;1937;left;ABSICHT;TEXT
AF0402;forcedguess;0;3;24;1;0;5;3;low;1139;left;KRIPPE;NEUZEIT
AF0402;forcedguess;0;3;25;1;0;0;-3;low;1421;right;RADIO;GELTUNG
AF0402;forcedguess;0;3;26;1;2;2;-1;low;2016;right;ZEUG;GEHIRN
AF0402;forcedguess;0;3;27;4;3;3;1;low;1717;right;DAMPFER;SCHNEE
AF0402;forcedguess;0;3;28;4;5;5;3;low;1796;right;SPRUCH;REDE
AF0402;forcedguess;0;3;29;1;1;1;-2;low;2531;right;HÄNDLER;BIER
AF0402;forcedguess;0;3;30;1;3;3;1;low;1797;right;KANNE;ANFRAGE
AF0402;forcedguess;0;3;31;0;2;2;0;low;1875;none;GONDEL;RELATION
AF0402;forcedguess;0;3;32;4;0;5;3;low;1827;left;WINTER;SCHNUR
AF0402;forcedguess;0;3;33;4;3;2;-1;low;1422;left;KÄSE;HAUSHALT
AF0402;forcedguess;0;3;34;4;3;2;-1;low;1468;left;HERD;STAHL
AF0402;forcedguess;0;3;35;0;3;3;0;low;1516;none;KARTE;TÜTE
AF0402;forcedguess;0;3;36;4;5;5;3;low;1671;right;BÜRO;THERAPIE
AF0402;forcedguess;0;3;37;1;5;5;3;low;1671;right;SEKRETÄR;HOLZ
AF0402;forcedguess;0;3;38;1;1;4;2;low;1828;left;MOLEKÜL;BUND
AF0402;forcedguess;0;3;39;4;3;3;1;low;1297;right;FLÖTE;KONGRESS
AF0402;forcedguess;0;3;40;0;0;0;0;low;1750;none;ABFLUSS;AKTIE
AF0402;forcedguess;0;3;41;0;0;0;0;low;1422;none;TENNIS;ARBEITER
AF0402;forcedguess;0;3;42;4;5;5;3;low;1828;right;FRAGMENT;VERMERK
AF0402;forcedguess;0;3;43;4;3;2;-1;low;1312;left;SÄGE;RUDEL
AF0402;forcedguess;0;3;44;4;2;2;-1;low;2219;right;KOPPEL;INSTANZ
AF0402;forcedguess;0;3;45;0;0;0;0;low;1891;none;TASSE;NACHWEIS
AF0402;forcedguess;0;3;46;4;5;5;3;low;1625;right;POSITION;WARE
AF0402;forcedguess;0;3;47;0;2;2;0;low;1858;none;QUOTE;FAZIT
AF0402;forcedguess;0;3;48;0;2;2;0;low;1578;none;HELM;OPIUM
AF0402;forcedguess;0;3;49;4;0;5;3;low;1469;left;ZUSTAND;SZENE
AF0402;forcedguess;0;3;50;0;0;0;0;low;2421;none;ZWERG;KUPFER
AF0402;forcedguess;0;3;51;0;0;0;0;low;1639;none;DATEI;LAGER
AF0402;forcedguess;0;3;52;4;0;0;-3;low;1516;right;SYMBOL;ERHEBUNG
AF0402;forcedguess;0;3;53;4;3;3;1;low;1952;right;SORTE;AMPEL
AF0402;forcedguess;0;3;54;4;3;2;-1;low;3171;left;BÜNDNIS;VERZICHT
AF0402;forcedguess;0;3;55;1;5;0;-3;low;1875;left;BUDE;VORSTAND
AF0402;forcedguess;0;3;56;1;5;0;-3;low;1500;left;RESERVE;HEFT
AF0402;forcedguess;0;3;57;4;3;3;1;low;1858;right;ANLAGE;HAAR
AF0402;forcedguess;0;3;58;4;5;5;3;low;1469;right;GEMISCH;STRUMPF
AF0402;forcedguess;0;3;59;4;5;5;3;low;1483;right;AUSKUNFT;WADE
AF0402;forcedguess;0;3;60;1;5;5;3;low;1203;right;FAKTOR;METHODE
AF0402;forcedguess;0;3;61;4;1;4;2;low;2811;left;KANU;STECKER
AF0402;forcedguess;0;3;62;1;0;5;3;low;1703;left;GEWICHT;IMBISS
AF0402;forcedguess;0;3;63;1;2;3;1;low;2937;left;SCHEMA;FANG
AF0402;forcedguess;0;3;64;1;3;3;1;low;2342;right;VERBAND;BEFUGNIS
AF0402;forcedguess;0;3;65;1;5;5;3;low;1359;right;SATTEL;EICHE
AF0402;forcedguess;0;3;66;0;5;5;0;low;2641;none;VERSION;BEZUG
AF0402;forcedguess;0;3;67;1;3;3;1;low;1875;right;VISUM;GLAS
AF0402;forcedguess;0;3;68;1;0;0;-3;low;2047;right;SPANGE;ERHÖHUNG
AF0402;forcedguess;0;3;69;0;3;3;0;low;1672;none;UMSTAND;PFAHL
AF0402;forcedguess;0;3;70;4;5;5;3;low;1780;right;BOTE;TASCHE
AF0402;forcedguess;0;3;71;1;5;5;3;low;2485;right;GRÜNDUNG;BRAUCH
AF0402;forcedguess;0;3;72;0;2;2;0;low;2483;none;VERS;LIZENZ
AF0402;forcedguess;0;3;73;4;5;0;-3;low;2030;left;SUBSTANZ;PERIODE
AF0402;forcedguess;0;3;74;1;5;5;3;low;1375;right;FUNKTION;MASSE
AF0402;forcedguess;0;3;75;0;0;0;0;low;1625;none;ZIGARRE;SCHÜRZE
AF0402;forcedguess;0;3;76;4;4;1;-2;low;1406;left;PILZ;LÄUFER
AF0402;forcedguess;0;3;77;1;3;3;1;low;1421;right;SITZ;NONNE
AF0402;forcedguess;0;3;78;1;0;5;3;low;1578;left;PAPRIKA;KORN
AF0402;forcedguess;0;3;79;1;5;5;3;low;1937;right;BAGGER;DATUM
AF0402;forcedguess;0;3;80;1;4;1;-2;low;2202;left;HAUBE;NIERE
AF0402;forcedguess;0;3;81;1;5;0;-3;low;1516;left;SAMMLUNG;FISCHER
AF0402;forcedguess;0;3;82;4;0;5;3;low;2562;left;PREDIGT;KRABBE
AF0402;forcedguess;0;3;83;0;5;5;0;low;3250;none;PRIESTER;BETRAG
AF0402;forcedguess;0;3;84;4;1;4;2;low;2250;left;AUSNAHME;REPORTER
AF0402;forcedguess;0;3;85;1;4;1;-2;low;2046;left;RAUPE;VERLAG
AF0402;forcedguess;0;3;86;1;3;3;1;low;2375;right;RANG;MAUS
AF0402;forcedguess;0;3;87;4;0;0;-3;low;2031;right;KAPSEL;GESCHIRR
AF0402;forcedguess;0;3;88;0;3;3;0;low;1484;none;STEMPEL;PRINZ
AF0402;forcedguess;0;3;89;4;3;3;1;low;1875;right;STATION;VORHANG
AF0402;forcedguess;1;0;0;3;0;5;3;low;3516;left;visual\obj063broom.gif;visual\obj412couch.gif
AF0402;forcedguess;1;0;1;3;1;1;-2;low;2703;right;visual\obj358rock.gif;visual\obj077cannon.gif
AF0402;forcedguess;1;0;2;3;0;5;3;low;1453;left;visual\obj074can.gif;visual\obj034bear.gif
AF0402;forcedguess;1;0;3;0;5;5;0;low;2000;none;visual\obj293paintbrush.gif;visual\obj046blimp.gif
AF0402;forcedguess;1;0;4;1;3;3;1;low;4062;right;visual\obj087celery.gif;visual\obj173trash.gif
AF0402;forcedguess;1;0;5;0;2;2;0;low;2000;none;visual\obj080hat.gif;visual\obj227kite.gif
AF0402;forcedguess;1;0;6;1;1;4;2;low;1546;left;visual\obj252lock.gif;visual\obj515woman.gif
AF0402;forcedguess;1;0;7;0;3;3;0;low;2421;none;visual\obj259match.gif;visual\obj143earring.gif
AF0402;forcedguess;1;0;8;3;5;5;3;low;1452;right;visual\obj246lion.gif;visual\obj213house.gif
AF0402;forcedguess;1;0;9;3;5;5;3;low;1187;right;visual\obj150faucet.gif;visual\obj129doll.gif
AF0402;forcedguess;1;0;10;3;5;5;3;low;1343;right;visual\obj212hose.gif;visual\obj261microphone.gif
AF0402;forcedguess;1;0;11;3;4;4;2;low;3843;right;visual\obj115crib.gif;visual\obj291package.gif
AF0402;forcedguess;1;0;12;1;1;4;2;low;2094;left;visual\obj300paperclip.gif;visual\obj447tv.gif
AF0402;forcedguess;1;0;13;1;1;4;2;low;1703;left;visual\obj220jacket.gif;visual\obj415spatula.gif
AF0402;forcedguess;1;0;14;3;0;5;3;low;1187;left;visual\obj454tiger.gif;visual\obj117crown.gif
AF0402;forcedguess;1;0;15;0;3;3;0;low;2703;none;visual\obj053bottle.gif;visual\obj187grasshopper.gif
AF0402;forcedguess;1;0;16;1;3;2;-1;low;1327;left;visual\obj514wolf.gif;visual\obj200hay.gif
AF0402;forcedguess;1;0;17;1;3;2;-1;low;2422;left;visual\obj460grave.gif;visual\obj241lettuce.gif
AF0402;forcedguess;1;0;18;3;0;5;3;low;1468;left;visual\obj413soldier.gif;visual\obj279necklace.gif
AF0402;forcedguess;1;0;19;1;5;5;3;low;4155;right;visual\obj148eye.gif;visual\obj374salt.gif
AF0402;forcedguess;1;0;20;3;5;5;3;low;1312;right;visual\obj245lightswitch.gif;visual\obj476turtle.gif
AF0402;forcedguess;1;0;21;3;3;3;1;low;2171;right;visual\obj459tomato.gif;visual\obj084tape.gif
AF0402;forcedguess;1;0;22;0;2;2;0;low;1953;none;visual\obj236leaf.gif;visual\obj490bricks.gif
AF0402;forcedguess;1;0;23;1;3;3;1;low;1907;right;visual\obj109corkscrew.gif;visual\obj497wateringcan.gif
AF0402;forcedguess;1;0;24;1;1;4;2;low;1952;left;visual\obj405slingshot.gif;visual\obj449tent.gif
AF0402;forcedguess;1;0;25;1;2;3;1;low;2280;left;visual\obj146envelope.gif;visual\obj088chain.gif
AF0402;forcedguess;1;0;26;3;3;3;1;low;2733;right;visual\obj473trumpet.gif;visual\obj056box.gif
AF0402;forcedguess;1;0;27;3;0;5;3;low;1921;left;visual\obj380scissors.gif;visual\obj179girl.gif
AF0402;forcedguess;1;0;28;1;3;3;1;low;3000;right;visual\obj006ant.gif;visual\obj086cat.gif
AF0402;forcedguess;1;0;29;1;3;2;-1;low;3094;left;visual\obj137drill.gif;visual\obj079canopener.gif
AF0402;forcedguess;1;0;30;0;2;2;0;low;3296;none;visual\obj466stoplight.gif;visual\obj174gas.gif
AF0402;forcedguess;1;0;31;0;3;3;0;low;4859;none;visual\obj285nut.gif;visual\obj367rug.gif
AF0402;forcedguess;1;0;32;3;3;3;1;low;1609;right;visual\obj401skis.gif;visual\obj103coat.gif
AF0402;forcedguess;1;0;33;0;2;2;0;low;2125;none;visual\obj379scarf.gif;visual\obj340purse.gif
AF0402;forcedguess;1;0;34;1;3;2;-1;low;1733;left;visual\obj458toilet.gif;visual\obj076cane.gif
AF0402;forcedguess;1;0;35;3;1;4;2;low;3484;left;visual\obj105pillar.gif;visual\obj486volcano.gif
AF0402;forcedguess;1;0;36;1;2;3;1;low;1750;left;visual\obj403sled.gif;visual\obj096cigarette.gif
AF0402;forcedguess;1;0;37;1;4;4;2;low;3515;right;visual\obj083carrot.gif;visual\obj038bee.gif
AF0402;forcedguess;1;0;38;1;2;3;1;low;2358;left;visual\obj363roof.gif;visual\obj393shoe.gif
AF0402;forcedguess;1;0;39;0;3;3;0;low;1516;none;visual\obj487waffle.gif;visual\obj118block.gif
AF0402;forcedguess;1;0;40;1;2;2;-1;low;1500;right;visual\obj491wallet.gif;visual\obj016ax.gif
AF0402;forcedguess;1;0;41;1;2;3;1;low;1671;left;visual\obj199hat.gif;visual\obj247lips.gif
AF0402;forcedguess;1;0;42;1;2;3;1;low;1328;left;visual\obj376saw.gif;visual\obj390shell.gif
AF0402;forcedguess;1;0;43;1;2;3;1;low;1125;left;visual\obj469tree.gif;visual\obj499spiderweb.gif
AF0402;forcedguess;1;0;44;0;2;2;0;low;2187;none;visual\obj308peas.gif;visual\obj348rainbow.gif
AF0402;forcedguess;1;0;45;1;3;3;1;low;2468;right;visual\obj121deer.gif;visual\obj409snake.gif
AF0402;forcedguess;1;0;46;3;3;3;1;low;1983;right;visual\obj078canoe.gif;visual\obj347rain.gif
AF0402;forcedguess;1;0;47;1;2;3;1;low;5030;left;visual\obj025balloon.gif;visual\obj186grapes.gif
AF0402;forcedguess;1;0;48;1;2;2;-1;low;1858;right;visual\obj286octopus.gif;visual\obj442tear.gif
AF0402;forcedguess;1;0;49;3;2;2;-1;low;2483;right;visual\obj498watermelon.gif;visual\obj049bomb.gif
AF0402;forcedguess;1;0;50;1;2;3;1;low;1828;left;visual\obj357robot.gif;visual\obj480unicorn.gif
AF0402;forcedguess;1;0;51;3;3;3;1;low;2764;right;visual\obj294paint.gif;visual\obj147eskimo.gif
AF0402;forcedguess;1;0;52;3;3;2;-1;low;1968;left;visual\obj345radio.gif;visual\obj033bathtub.gif
AF0402;forcedguess;1;0;53;1;2;3;1;low;4141;left;visual\obj349rake.gif;visual\obj239leopard.gif
AF0402;forcedguess;1;0;54;0;2;2;0;low;1656;none;visual\obj276music.gif;visual\obj307pear.gif
AF0402;forcedguess;1;0;55;1;3;3;1;low;1358;right;visual\obj503wheel.gif;visual\obj438tail.gif
AF0402;forcedguess;1;0;56;1;2;3;1;low;3405;left;visual\obj505wheelchair.gif;visual\obj372sailboat.gif
AF0402;forcedguess;1;0;57;3;2;3;1;low;1921;left;visual\obj029barbecue.gif;visual\obj072camel.gif
AF0402;forcedguess;1;0;58;3;3;3;1;low;2358;right;visual\obj193hammer.gif;visual\obj406slipper.gif
AF0402;forcedguess;1;0;59;1;3;2;-1;low;1250;left;visual\obj299paper.gif;visual\obj004alligator.gif
AF0402;forcedguess;1;0;60;3;2;3;1;low;1733;left;visual\obj298pants.gif;visual\obj081car.gif
AF0402;forcedguess;1;0;61;3;2;3;1;low;4703;left;visual\obj043bicycle.gif;visual\obj500well.gif
AF0402;forcedguess;1;0;62;1;3;2;-1;low;2235;left;visual\obj483vase.gif;visual\obj351recordplayer.gif
AF0402;forcedguess;1;0;63;0;3;3;0;low;2812;none;visual\obj373sailor.gif;visual\obj036beaver.gif
AF0402;forcedguess;1;0;64;1;3;3;1;low;1562;right;visual\obj175fence.gif;visual\obj508wig.gif
AF0402;forcedguess;1;0;65;1;4;4;2;low;1797;right;visual\obj040bell.gif;visual\obj328pliers.gif
AF0402;forcedguess;1;0;66;1;3;2;-1;low;2421;left;visual\obj274mousetrap.gif;visual\obj066butter.gif
AF0402;forcedguess;1;0;67;3;4;4;2;low;2264;right;visual\obj264mixer.gif;visual\obj297panda.gif
AF0402;forcedguess;1;0;68;3;0;5;3;low;1750;left;visual\obj435sword.gif;visual\obj019stroller.gif
AF0402;forcedguess;1;0;69;1;5;0;-3;low;1562;left;visual\obj134drawer.gif;visual\obj354gun.gif
AF0402;forcedguess;1;0;70;3;1;4;2;low;2671;left;visual\obj365rope.gif;visual\obj465tractor.gif
AF0402;forcedguess;1;0;71;1;3;3;1;low;2093;right;visual\obj042bench.gif;visual\obj182globe.gif
AF0402;forcedguess;1;0;72;0;3;3;0;low;1234;none;visual\obj467train.gif;visual\obj272mountain.gif
AF0402;forcedguess;1;0;73;0;2;2;0;low;1625;none;visual\obj223jumprope.gif;visual\obj191brush.gif
AF0402;forcedguess;1;0;74;1;2;2;-1;low;1858;right;visual\obj054bowl.gif;visual\obj456toaster.gif
AF0402;forcedguess;1;0;75;1;3;3;1;low;2953;right;visual\obj158fishingpole.gif;visual\obj244lightning.gif
AF0402;forcedguess;1;0;76;1;2;2;-1;low;1546;right;visual\obj315picture.gif;visual\obj231ladder.gif
AF0402;forcedguess;1;0;77;0;2;2;0;low;2266;none;visual\obj332popcorn.gif;visual\obj477tweezers.gif
AF0402;forcedguess;1;0;78;0;2;2;0;low;1328;none;visual\obj501whale.gif;visual\obj045bird.gif
AF0402;forcedguess;1;0;79;0;2;2;0;low;1266;none;visual\obj110corn.gif;visual\obj225key.gif
AF0402;forcedguess;1;0;80;3;2;2;-1;low;1483;right;visual\obj189gun.gif;visual\obj242lightbulb.gif
AF0402;forcedguess;1;0;81;3;0;5;3;low;1391;left;visual\obj202heel.gif;visual\obj325pitchfork.gif
