code;group;session;block;trial;enc;resp;confidence;points;scale;rt;posold;old;new
AF0402;teilenkodiert;0;0;0;1;0;5;9;high;7562;Links;ZWIEBEL;ERLÖS
AF0402;teilenkodiert;0;0;1;4;0;5;9;high;3796;Links;SCHWAMM;GRAD
AF0402;teilenkodiert;0;0;2;1;2;3;1;high;9157;Links;STIRN;TERMIN
AF0402;teilenkodiert;0;0;3;1;0;5;9;high;3437;Links;GARDE;PFEIL
AF0402;teilenkodiert;0;0;4;0;5;5;0;high;3546;None;ELLBOGEN;MANTEL
AF0402;teilenkodiert;0;0;5;1;5;5;9;high;2703;Rechts;BRONZE;GEWÄHR
AF0402;teilenkodiert;0;0;6;1;5;0;-9;high;2812;Links;ENDUNG;GEBIET
AF0402;teilenkodiert;0;0;7;1;2;2;-1;high;7641;Rechts;KATALOG;PASSAGE
AF0402;teilenkodiert;0;0;8;4;0;5;9;high;1766;Links;SEGEL;WANNE
AF0402;teilenkodiert;0;0;9;1;4;4;5;high;3671;Rechts;WAAGE;STANGE
AF0402;teilenkodiert;0;0;10;4;5;5;9;high;1546;Rechts;NUSS;BAHNHOF
AF0402;teilenkodiert;0;0;11;1;5;5;9;high;2359;Rechts;HAMSTER;ANKER
AF0402;teilenkodiert;0;0;12;0;5;5;0;high;2547;None;BEUTEL;ZUCHT
AF0402;teilenkodiert;0;0;13;4;5;5;9;high;3187;Rechts;UMFRAGE;BLASE
AF0402;teilenkodiert;0;0;14;4;0;5;9;high;2046;Links;HIRTE;KOFFER
AF0402;teilenkodiert;0;0;15;1;5;5;9;high;2453;Rechts;KERL;ANBAU
AF0402;teilenkodiert;0;0;16;4;5;5;9;high;2655;Rechts;ALGE;RELIGION
AF0402;teilenkodiert;0;0;17;4;5;5;9;high;1515;Rechts;LAUF;ADER
AF0402;teilenkodiert;0;0;18;1;1;4;5;high;2500;Links;MANDANT;LABOR
AF0402;teilenkodiert;0;0;19;0;5;5;0;high;2671;None;RADLER;HAUT
AF0402;teilenkodiert;0;0;20;4;0;5;9;high;1781;Links;MÄHNE;TABELLE
AF0402;teilenkodiert;0;0;21;1;2;2;-1;high;3391;Rechts;LADUNG;APPARAT
AF0402;teilenkodiert;0;0;22;4;0;5;9;high;1281;Links;KRANZ;MATRIX
AF0402;teilenkodiert;0;0;23;1;5;5;9;high;2359;Rechts;AUSWEIS;RAND
AF0402;teilenkodiert;0;0;24;1;5;5;9;high;1563;Rechts;SPATEN;KETTE
AF0402;teilenkodiert;0;0;25;4;5;5;9;high;812;Rechts;FACKEL;SCHANZE
AF0402;teilenkodiert;0;0;26;1;0;5;9;high;2265;Links;ZONE;BILANZ
AF0402;teilenkodiert;0;0;27;4;0;5;9;high;1859;Links;STEIN;BLEI
AF0402;teilenkodiert;0;0;28;1;0;5;9;high;1891;Links;STRUKTUR;ZELT
AF0402;teilenkodiert;0;0;29;1;4;1;-5;high;3108;Links;SCHUH;ANSICHT
AF0402;teilenkodiert;0;0;30;1;0;0;-9;high;2407;Rechts;BELEGUNG;RINDE
AF0402;teilenkodiert;0;0;31;1;0;5;9;high;1344;Links;NEIGUNG;GANS
AF0402;teilenkodiert;0;0;32;0;3;3;0;high;3750;None;OBER;SCHNECKE
AF0402;teilenkodiert;0;0;33;1;5;5;9;high;3907;Rechts;KLIMA;PRAXIS
AF0402;teilenkodiert;0;0;34;4;0;5;9;high;1671;Links;SKIZZE;JACKE
AF0402;teilenkodiert;0;0;35;1;5;5;9;high;2921;Rechts;TOPF;ZAUN
AF0402;teilenkodiert;0;0;36;4;0;5;9;high;1766;Links;FIGUR;PÄCKCHEN
AF0402;teilenkodiert;0;0;37;0;2;2;0;high;2797;None;DOSE;METZGER
AF0402;teilenkodiert;0;0;38;4;5;5;9;high;2250;Rechts;POLIZIST;OSTEN
AF0402;teilenkodiert;0;0;39;4;0;5;9;high;1953;Links;MAGEN;EINNAHME
AF0402;teilenkodiert;0;0;40;0;5;5;0;high;2030;None;AUTOMAT;THEKE
AF0402;teilenkodiert;0;0;41;4;0;5;9;high;2000;Links;OBJEKT;GREMIUM
AF0402;teilenkodiert;0;0;42;1;4;4;5;high;1985;Rechts;KREIDE;GETREIDE
AF0402;teilenkodiert;0;0;43;4;5;5;9;high;4719;Rechts;SCHNAPS;MINIMUM
AF0402;teilenkodiert;0;0;44;1;5;5;9;high;1391;Rechts;NADEL;STÜTZE
AF0402;teilenkodiert;0;0;45;4;5;5;9;high;2172;Rechts;BÜGEL;FASSUNG
AF0402;teilenkodiert;0;0;46;4;5;5;9;high;1344;Rechts;FORMAT;TRUPPE
AF0402;teilenkodiert;0;0;47;1;5;5;9;high;4250;Rechts;KABINE;WIRKUNG
AF0402;teilenkodiert;0;0;48;4;5;0;-9;high;2532;Links;WERBER;MUSTER
AF0402;teilenkodiert;0;0;49;4;5;5;9;high;2266;Rechts;AUSGABE;ZITAT
AF0402;teilenkodiert;0;0;50;4;5;5;9;high;1376;Rechts;MATERIE;LARVE
AF0402;teilenkodiert;0;0;51;0;3;3;0;high;2562;None;HÜRDE;DORN
AF0402;teilenkodiert;0;0;52;0;3;3;0;high;2953;None;BEWOHNER;GNADE
AF0402;teilenkodiert;0;0;53;1;2;3;1;high;4547;Links;VOLUMEN;MAST
AF0402;teilenkodiert;0;0;54;4;5;5;9;high;1968;Rechts;SCHILD;BESTAND
AF0402;teilenkodiert;0;0;55;1;0;5;9;high;2422;Links;WÄHRUNG;MAGNET
AF0402;teilenkodiert;0;0;56;1;0;5;9;high;1344;Links;GABEL;WINKEL
AF0402;teilenkodiert;0;0;57;4;5;5;9;high;1796;Rechts;KLÄRUNG;KNIE
AF0402;teilenkodiert;0;0;58;0;4;4;0;high;2531;None;BAUWERK;MÖNCH
AF0402;teilenkodiert;0;0;59;0;4;4;0;high;1937;None;KITTEL;TAGEBUCH
AF0402;teilenkodiert;0;0;60;4;5;5;9;high;1250;Rechts;NORM;KONZERN
AF0402;teilenkodiert;0;0;61;4;0;5;9;high;2312;Links;WENDUNG;LAUFBAHN
AF0402;teilenkodiert;0;0;62;4;3;3;1;high;2828;Rechts;EXPORT;JUNGFRAU
AF0402;teilenkodiert;0;0;63;0;2;2;0;high;4577;None;KNOPF;LEITUNG
AF0402;teilenkodiert;0;0;64;4;1;4;5;high;1844;Links;GEWERBE;FAHRZEUG
AF0402;teilenkodiert;0;0;65;1;5;5;9;high;2078;Rechts;BERATUNG;PFLAUME
AF0402;teilenkodiert;0;0;66;1;4;1;-5;high;2546;Links;GRAMM;GLAUBE
AF0402;teilenkodiert;0;0;67;4;1;4;5;high;3202;Links;SEGEN;STROM
AF0402;teilenkodiert;0;0;68;0;4;4;0;high;1734;None;MALER;SCHRIFT
AF0402;teilenkodiert;0;0;69;0;0;0;0;high;2187;None;ANHÄNGER;EIGNUNG
AF0402;teilenkodiert;0;0;70;4;0;5;9;high;1171;Links;BOOT;PATRONE
AF0402;teilenkodiert;0;0;71;4;0;5;9;high;1891;Links;ANTEIL;BINDUNG
AF0402;teilenkodiert;0;0;72;0;3;3;0;high;1828;None;FOLIE;WOLLE
AF0402;teilenkodiert;0;0;73;4;5;5;9;high;1967;Rechts;MUSEUM;KUPPLUNG
AF0402;teilenkodiert;0;0;74;4;0;5;9;high;2594;Links;GARDINE;KUNDE
AF0402;teilenkodiert;0;0;75;1;4;1;-5;high;3828;Links;FREQUENZ;VERSUCH
AF0402;teilenkodiert;0;0;76;0;4;4;0;high;1828;None;ECKE;PIRAT
AF0402;teilenkodiert;0;0;77;1;3;2;-1;high;2391;Links;HÜTTE;TROPFEN
AF0402;teilenkodiert;0;0;78;1;2;3;1;high;2530;Links;GLOCKE;BECHER
AF0402;teilenkodiert;0;0;79;1;3;3;1;high;2780;Rechts;GELENK;TISCH
AF0402;teilenkodiert;0;0;80;1;3;3;1;high;1750;Rechts;KURVE;TRICK
AF0402;teilenkodiert;0;0;81;4;3;2;-1;high;1343;Links;TUCH;KURS
AF0402;teilenkodiert;0;0;82;4;5;5;9;high;1735;Rechts;GEPÄCK;VERTRAG
AF0402;teilenkodiert;0;0;83;1;2;3;1;high;2875;Links;ANSPRUCH;ZEILE
AF0402;teilenkodiert;0;0;84;0;3;3;0;high;3296;None;PATE;ENTE
AF0402;teilenkodiert;0;0;85;4;3;3;1;high;2219;Rechts;FAHRER;MOTOR
AF0402;teilenkodiert;0;0;86;0;3;3;0;high;1547;None;STUDIE;MASCHINE
AF0402;teilenkodiert;0;0;87;1;3;2;-1;high;1733;Links;REZEPT;ANSCHEIN
AF0402;teilenkodiert;0;0;88;1;3;3;1;high;1438;Rechts;SERIE;BART
AF0402;teilenkodiert;0;0;89;0;3;3;0;high;1812;None;KLAMOTTE;SPRECHER
AF0402;teilenkodiert;0;1;0;1;0;5;3;low;2733;Links;HANDEL;COMPUTER
AF0402;teilenkodiert;0;1;1;1;0;5;3;low;2953;Links;AKTIONÄR;AUSZUG
AF0402;teilenkodiert;0;1;2;1;5;5;3;low;2718;Rechts;WACHE;NATION
AF0402;teilenkodiert;0;1;3;1;5;5;3;low;1641;Rechts;EINZUG;SPIRALE
AF0402;teilenkodiert;0;1;4;0;5;5;0;low;1905;None;SCHEITEL;GELÄNDE
AF0402;teilenkodiert;0;1;5;1;0;5;3;low;2891;Links;ZUSATZ;FISCH
AF0402;teilenkodiert;0;1;6;4;0;5;3;low;1437;Links;STOFF;PYRAMIDE
AF0402;teilenkodiert;0;1;7;1;0;5;3;low;1250;Links;BODEN;BUSCH
AF0402;teilenkodiert;0;1;8;0;5;5;0;low;2875;None;RUTSCHE;TREND
AF0402;teilenkodiert;0;1;9;0;4;4;0;low;1500;None;PHASE;ZETTEL
AF0402;teilenkodiert;0;1;10;1;5;5;3;low;1734;Rechts;DIENST;STUHL
AF0402;teilenkodiert;0;1;11;1;1;4;2;low;1875;Links;VERBUND;LEUCHTE
AF0402;teilenkodiert;0;1;12;4;0;5;3;low;2141;Links;FLASCHE;REST
AF0402;teilenkodiert;0;1;13;4;0;0;-3;low;1187;Rechts;PASS;EINKAUF
AF0402;teilenkodiert;0;1;14;1;5;5;3;low;1359;Rechts;MACHER;VIEH
AF0402;teilenkodiert;0;1;15;0;0;0;0;low;2608;None;STROPHE;GUSS
AF0402;teilenkodiert;0;1;16;4;5;0;-3;low;2032;Links;HERGANG;ABDRUCK
AF0402;teilenkodiert;0;1;17;4;5;5;3;low;890;Rechts;REGAL;WURF
AF0402;teilenkodiert;0;1;18;1;0;5;3;low;1703;Links;HAHN;DIALOG
AF0402;teilenkodiert;0;1;19;1;0;5;3;low;1328;Links;ESEL;PROFI
AF0402;teilenkodiert;0;1;20;1;0;0;-3;low;1327;Rechts;TATSACHE;SIEGEL
AF0402;teilenkodiert;0;1;21;0;0;0;0;low;1453;None;SITZUNG;KANZLER
AF0402;teilenkodiert;0;1;22;4;5;5;3;low;2530;Rechts;KIES;AGENT
AF0402;teilenkodiert;0;1;23;1;5;5;3;low;1641;Rechts;STRAUCH;KORALLE
AF0402;teilenkodiert;0;1;24;4;0;5;3;low;1750;Links;KASSETTE;TINTE
AF0402;teilenkodiert;0;1;25;1;5;5;3;low;1577;Rechts;BEWERBER;GÖNNER
AF0402;teilenkodiert;0;1;26;1;5;5;3;low;1030;Rechts;GALERIE;KOCHTOPF
AF0402;teilenkodiert;0;1;27;4;0;5;3;low;2092;Links;WERTUNG;SALZ
AF0402;teilenkodiert;0;1;28;1;4;4;2;low;2875;Rechts;ZIMMER;KÖNIG
AF0402;teilenkodiert;0;1;29;0;0;0;0;low;1812;None;BENZIN;ULME
AF0402;teilenkodiert;0;1;30;0;0;0;0;low;1703;None;NAGEL;ORDEN
AF0402;teilenkodiert;0;1;31;1;0;5;3;low;1375;Links;GESCHÄFT;RADIUS
AF0402;teilenkodiert;0;1;32;4;5;5;3;low;1813;Rechts;WEISUNG;REIGEN
AF0402;teilenkodiert;0;1;33;1;5;0;-3;low;2187;Links;JÜNGER;ZEIGER
AF0402;teilenkodiert;0;1;34;4;5;0;-3;low;1860;Links;DIESEL;AUSDRUCK
AF0402;teilenkodiert;0;1;35;1;2;3;1;low;1781;Links;KÄUFER;MÄDEL
AF0402;teilenkodiert;0;1;36;1;4;4;2;low;1483;Rechts;SCHÄDEL;EULE
AF0402;teilenkodiert;0;1;37;0;1;1;0;low;1953;None;HÄLFTE;AKTEUR
AF0402;teilenkodiert;0;1;38;1;2;2;-1;low;1703;Rechts;RECHTECK;WIRT
AF0402;teilenkodiert;0;1;39;4;5;5;3;low;1750;Rechts;JUNGE;SYNTAX
AF0402;teilenkodiert;0;1;40;0;2;2;0;low;1766;None;VOLK;HUHN
AF0402;teilenkodiert;0;1;41;1;2;3;1;low;1687;Links;PHRASE;POST
AF0402;teilenkodiert;0;1;42;1;1;4;2;low;1812;Links;TASTE;ROHR
AF0402;teilenkodiert;0;1;43;1;0;0;-3;low;1812;Rechts;ERDBALL;BUCHUNG
AF0402;teilenkodiert;0;1;44;4;0;5;3;low;1328;Links;SAMMLER;FELD
AF0402;teilenkodiert;0;1;45;0;3;3;0;low;2687;None;MOTORRAD;BASS
AF0402;teilenkodiert;0;1;46;4;2;3;1;low;1405;Links;TELLER;SYMPTOM
AF0402;teilenkodiert;0;1;47;4;4;4;2;low;1983;Rechts;REPUBLIK;SAAT
AF0402;teilenkodiert;0;1;48;4;4;1;-2;low;1422;Links;PINSEL;AUFLAGE
AF0402;teilenkodiert;0;1;49;0;4;4;0;low;1125;None;EFFEKT;KUGEL
AF0402;teilenkodiert;0;1;50;1;4;1;-2;low;1421;Links;FELL;AUFTRAG
AF0402;teilenkodiert;0;1;51;4;5;5;3;low;1218;Rechts;SERUM;WANDLUNG
AF0402;teilenkodiert;0;1;52;4;4;4;2;low;1641;Rechts;RICHTER;FERSE
AF0402;teilenkodiert;0;1;53;4;5;5;3;low;1656;Rechts;ZUGANG;KNABE
AF0402;teilenkodiert;0;1;54;1;5;0;-3;low;1937;Links;EINHEIT;ENTWURF
AF0402;teilenkodiert;0;1;55;0;1;1;0;low;1609;None;TURM;SENDUNG
AF0402;teilenkodiert;0;1;56;4;1;4;2;low;1485;Links;DOKUMENT;TREPPE
AF0402;teilenkodiert;0;1;57;1;0;0;-3;low;1532;Rechts;MODELL;STREIFEN
AF0402;teilenkodiert;0;1;58;0;0;0;0;low;1484;None;NASE;EINTRAG
AF0402;teilenkodiert;0;1;59;0;2;2;0;low;1937;None;PERÜCKE;GURT
AF0402;teilenkodiert;0;1;60;1;0;5;3;low;1516;Links;EISEN;RITTER
AF0402;teilenkodiert;0;1;61;4;3;3;1;low;1687;Rechts;FLÄCHE;UNSINN
AF0402;teilenkodiert;0;1;62;1;2;2;-1;low;1719;Rechts;GEBOT;QUARK
AF0402;teilenkodiert;0;1;63;4;4;1;-2;low;2812;Links;ZIFFER;SYNTHESE
AF0402;teilenkodiert;0;1;64;4;5;5;3;low;1062;Rechts;FINGER;KRONE
AF0402;teilenkodiert;0;1;65;4;5;5;3;low;983;Rechts;LACK;MARKE
AF0402;teilenkodiert;0;1;66;4;1;4;2;low;2000;Links;ADRESSE;VETTER
AF0402;teilenkodiert;0;1;67;1;4;1;-2;low;1718;Links;MAPPE;HORN
AF0402;teilenkodiert;0;1;68;0;4;4;0;low;1358;None;SCHRANK;LEHNE
AF0402;teilenkodiert;0;1;69;1;0;0;-3;low;1453;Rechts;BREZEL;SCHALTER
AF0402;teilenkodiert;0;1;70;4;0;0;-3;low;1547;Rechts;ZANGE;SATZ
AF0402;teilenkodiert;0;1;71;1;3;3;1;low;2780;Rechts;LEGENDE;LOCHER
AF0402;teilenkodiert;0;1;72;0;5;5;0;low;1952;None;AUSSCHAU;AUSÜBUNG
AF0402;teilenkodiert;0;1;73;0;1;1;0;low;1671;None;SCHICHT;WARTUNG
AF0402;teilenkodiert;0;1;74;1;4;4;2;low;2062;Rechts;EPISODE;SONATE
AF0402;teilenkodiert;0;1;75;4;2;2;-1;low;1625;Rechts;QUADRAT;SCHUPPEN
AF0402;teilenkodiert;0;1;76;1;1;4;2;low;1547;Links;KOSMETIK;PLANET
AF0402;teilenkodiert;0;1;77;4;0;5;3;low;1780;Links;GESTEIN;KUPPE
AF0402;teilenkodiert;0;1;78;0;0;0;0;low;1266;None;FRUCHT;ANZEIGE
AF0402;teilenkodiert;0;1;79;4;0;5;3;low;1234;Links;MERKMAL;LÖFFEL
AF0402;teilenkodiert;0;1;80;4;1;4;2;low;2141;Links;REPTIL;BASIS
AF0402;teilenkodiert;0;1;81;4;2;3;1;low;1672;Links;SCHATTEN;MODE
AF0402;teilenkodiert;0;1;82;4;2;2;-1;low;2328;Rechts;KLINKE;RESULTAT
AF0402;teilenkodiert;0;1;83;1;2;3;1;low;1625;Links;PROFIL;STOCK
AF0402;teilenkodiert;0;1;84;1;1;1;-2;low;1750;Rechts;LEBER;DING
AF0402;teilenkodiert;0;1;85;4;2;2;-1;low;2406;Rechts;HÖRER;BOHRER
AF0402;teilenkodiert;0;1;86;4;1;1;-2;low;1358;Rechts;SCHUB;WAND
AF0402;teilenkodiert;0;1;87;4;2;3;1;low;2108;Links;MOTTO;PEGEL
AF0402;teilenkodiert;0;1;88;4;0;5;3;low;3046;Links;VERKAUF;HEBEL
AF0402;teilenkodiert;0;1;89;4;5;5;3;low;1562;Rechts;AUSGANG;DETAIL
AF0402;teilenkodiert;0;2;0;4;5;5;9;high;3796;Rechts;EBENE;VOTUM
AF0402;teilenkodiert;0;2;1;1;5;5;9;high;2093;Rechts;KOHL;BRIEF
AF0402;teilenkodiert;0;2;2;1;5;5;9;high;1264;Rechts;ANGEL;GEMÜT
AF0402;teilenkodiert;0;2;3;1;1;1;-5;high;3375;Rechts;PFAD;SEMINAR
AF0402;teilenkodiert;0;2;4;0;0;0;0;high;2952;None;MITTAG;DIAKONIE
AF0402;teilenkodiert;0;2;5;1;0;5;9;high;1217;Links;TARIF;LÄNGE
AF0402;teilenkodiert;0;2;6;1;0;5;9;high;1500;Links;SPALTE;WESEN
AF0402;teilenkodiert;0;2;7;4;5;0;-9;high;1750;Links;PLAN;BESTECK
AF0402;teilenkodiert;0;2;8;4;5;5;9;high;1468;Rechts;PFÜTZE;KÜBEL
AF0402;teilenkodiert;0;2;9;4;5;0;-9;high;1125;Links;KAMEL;SKALA
AF0402;teilenkodiert;0;2;10;0;0;0;0;high;4516;None;AUSWAHL;STROH
AF0402;teilenkodiert;0;2;11;4;5;5;9;high;1859;Rechts;KNOCHEN;KISTE
AF0402;teilenkodiert;0;2;12;1;5;5;9;high;1328;Rechts;PFARRER;SEIL
AF0402;teilenkodiert;0;2;13;1;5;0;-9;high;1734;Links;PEDAL;WAGEN
AF0402;teilenkodiert;0;2;14;4;5;5;9;high;1500;Rechts;PARKETT;ETAGE
AF0402;teilenkodiert;0;2;15;4;0;5;9;high;1578;Links;EXEMPLAR;LINIE
AF0402;teilenkodiert;0;2;16;1;0;0;-9;high;1594;Rechts;WAHRUNG;UMGANG
AF0402;teilenkodiert;0;2;17;1;5;0;-9;high;2281;Links;SCHNITT;REGEL
AF0402;teilenkodiert;0;2;18;4;5;0;-9;high;1062;Links;MONITOR;TRANSFER
AF0402;teilenkodiert;0;2;19;0;0;0;0;high;3141;None;FAHNE;SCHINKEN
AF0402;teilenkodiert;0;2;20;0;0;0;0;high;1500;None;FERNROHR;KREUZ
AF0402;teilenkodiert;0;2;21;4;5;5;9;high;2077;Rechts;TROMPETE;SOHLE
AF0402;teilenkodiert;0;2;22;4;4;4;5;high;2515;Rechts;SITTE;PULLOVER
AF0402;teilenkodiert;0;2;23;4;2;2;-1;high;3765;Rechts;STAUB;ZENTRUM
AF0402;teilenkodiert;0;2;24;1;0;0;-9;high;1812;Rechts;HÄNGER;STÄTTE
AF0402;teilenkodiert;0;2;25;4;0;5;9;high;1500;Links;KANAL;NOTIZ
AF0402;teilenkodiert;0;2;26;0;4;4;0;high;2015;None;KERN;SYSTEM
AF0402;teilenkodiert;0;2;27;1;4;4;5;high;2515;Rechts;INHALT;ZUCKER
AF0402;teilenkodiert;0;2;28;4;5;5;9;high;1453;Rechts;VORGANG;ZIRKUS
AF0402;teilenkodiert;0;2;29;0;0;0;0;high;1405;None;TAKT;GERÄT
AF0402;teilenkodiert;0;2;30;4;0;5;9;high;1500;Links;HECKE;VIDEO
AF0402;teilenkodiert;0;2;31;1;2;3;1;high;1952;Links;PACKUNG;GEHORSAM
AF0402;teilenkodiert;0;2;32;1;0;5;9;high;2250;Links;BEDARF;DRESSUR
AF0402;teilenkodiert;0;2;33;1;3;2;-1;high;4250;Links;DIENER;BAUER
AF0402;teilenkodiert;0;2;34;1;0;5;9;high;1750;Links;PHYSIK;BAUCH
AF0402;teilenkodiert;0;2;35;1;0;0;-9;high;1922;Rechts;REGELUNG;KLAMMER
AF0402;teilenkodiert;0;2;36;4;0;5;9;high;2030;Links;KLOSTER;KAUF
AF0402;teilenkodiert;0;2;37;0;1;1;0;high;1936;None;KORB;STADIUM
AF0402;teilenkodiert;0;2;38;4;0;5;9;high;1375;Links;TRANSIT;TRAKTOR
AF0402;teilenkodiert;0;2;39;1;4;4;5;high;2469;Rechts;PLANUNG;FARM
AF0402;teilenkodiert;0;2;40;4;5;0;-9;high;2172;Links;BOGEN;SACK
AF0402;teilenkodiert;0;2;41;4;0;5;9;high;1875;Links;LIMIT;SOLO
AF0402;teilenkodiert;0;2;42;0;0;0;0;high;1265;None;ZWILLING;STIFT
AF0402;teilenkodiert;0;2;43;1;0;5;9;high;1687;Links;BRILLE;ALLIANZ
AF0402;teilenkodiert;0;2;44;1;1;1;-5;high;2625;Rechts;ZUNGE;VENTIL
AF0402;teilenkodiert;0;2;45;1;2;2;-1;high;3594;Rechts;STRICH;VARIANTE
AF0402;teilenkodiert;0;2;46;1;0;0;-9;high;1844;Rechts;TANK;MATERIAL
AF0402;teilenkodiert;0;2;47;4;5;5;9;high;2046;Rechts;PRODUKT;EPOCHE
AF0402;teilenkodiert;0;2;48;1;2;2;-1;high;3031;Rechts;BRUT;RAST
AF0402;teilenkodiert;0;2;49;0;3;3;0;high;2391;None;SCHOTTER;BIRNE
AF0402;teilenkodiert;0;2;50;1;3;3;1;high;2187;Rechts;KINN;SAAL
AF0402;teilenkodiert;0;2;51;1;3;3;1;high;1797;Rechts;SCHEUNE;EWIGKEIT
AF0402;teilenkodiert;0;2;52;4;0;0;-9;high;2922;Rechts;LUPE;ARGUMENT
AF0402;teilenkodiert;0;2;53;1;0;0;-9;high;1437;Rechts;BURG;PFERD
AF0402;teilenkodiert;0;2;54;4;1;4;5;high;3593;Links;MISCHUNG;KELLER
AF0402;teilenkodiert;0;2;55;1;1;4;5;high;1312;Links;RÜSTUNG;SCHLAMM
AF0402;teilenkodiert;0;2;56;4;5;5;9;high;2046;Rechts;INSTITUT;BERUF
AF0402;teilenkodiert;0;2;57;0;4;4;0;high;2483;None;BEMÜHUNG;VORTAG
AF0402;teilenkodiert;0;2;58;1;2;3;1;high;2765;Links;PRISE;MÜHLE
AF0402;teilenkodiert;0;2;59;1;1;4;5;high;1750;Links;TUNNEL;URSACHE
AF0402;teilenkodiert;0;2;60;4;0;0;-9;high;1765;Rechts;WURST;ZEICHEN
AF0402;teilenkodiert;0;2;61;4;5;0;-9;high;1750;Links;LÜCKE;KAMMER
AF0402;teilenkodiert;0;2;62;4;3;3;1;high;3125;Rechts;HINSICHT;ABRUF
AF0402;teilenkodiert;0;2;63;4;4;4;5;high;2516;Rechts;ERWÄGUNG;TRIKOT
AF0402;teilenkodiert;0;2;64;4;4;4;5;high;1625;Rechts;SPIEGEL;PLAKAT
AF0402;teilenkodiert;0;2;65;4;1;4;5;high;1952;Links;BEGRIFF;VORNAME
AF0402;teilenkodiert;0;2;66;1;2;3;1;high;2375;Links;DIREKTOR;URHEBER
AF0402;teilenkodiert;0;2;67;1;2;3;1;high;1625;Links;REGIE;HEMD
AF0402;teilenkodiert;0;2;68;0;4;4;0;high;2937;None;KANDIDAT;SIEDLUNG
AF0402;teilenkodiert;0;2;69;0;0;0;0;high;1983;None;NUMMER;DORF
AF0402;teilenkodiert;0;2;70;4;0;5;9;high;1155;Links;SCHWEIN;BEIN
AF0402;teilenkodiert;0;2;71;4;2;2;-1;high;2390;Rechts;LOCH;LEIB
AF0402;teilenkodiert;0;2;72;4;0;0;-9;high;2109;Rechts;VORRECHT;RENTE
AF0402;teilenkodiert;0;2;73;0;1;1;0;high;2094;None;NICKEL;NUTZUNG
AF0402;teilenkodiert;0;2;74;4;3;3;1;high;1953;Rechts;BLATT;LAGERUNG
AF0402;teilenkodiert;0;2;75;0;1;1;0;high;1953;None;MASKE;ONKEL
AF0402;teilenkodiert;0;2;76;0;5;5;0;high;2593;None;ETIKETT;FROST
AF0402;teilenkodiert;0;2;77;1;4;1;-5;high;2094;Links;SCHEIBE;GEBÄUDE
AF0402;teilenkodiert;0;2;78;0;0;0;0;high;2000;None;RENDITE;BISCHOF
AF0402;teilenkodiert;0;2;79;4;0;5;9;high;1390;Links;METALL;VENE
AF0402;teilenkodiert;0;2;80;0;1;1;0;high;2891;None;ANTLITZ;EINGABE
AF0402;teilenkodiert;0;2;81;4;2;3;1;high;1812;Links;ANLASS;ARENA
AF0402;teilenkodiert;0;2;82;1;1;1;-5;high;1467;Rechts;BLECH;STATUS
AF0402;teilenkodiert;0;2;83;1;2;3;1;high;2406;Links;SCHLEIER;PALETTE
AF0402;teilenkodiert;0;2;84;1;4;4;5;high;2172;Rechts;QUITTUNG;PFANNE
AF0402;teilenkodiert;0;2;85;4;1;4;5;high;3875;Links;KASTEN;KRAGEN
AF0402;teilenkodiert;0;2;86;1;2;3;1;high;1766;Links;LUNGE;UMBAU
AF0402;teilenkodiert;0;2;87;1;5;0;-9;high;1672;Links;SUPPE;NETZ
AF0402;teilenkodiert;0;2;88;4;3;2;-1;high;2108;Links;DRAHT;SCHIRM
AF0402;teilenkodiert;0;2;89;0;1;1;0;high;1609;None;KÄFER;TECHNIK
AF0402;teilenkodiert;0;3;0;1;0;0;-3;low;2625;Rechts;SCHMUCK;FABRIK
AF0402;teilenkodiert;0;3;1;4;0;0;-3;low;2421;Rechts;EIMER;ÄNDERUNG
AF0402;teilenkodiert;0;3;2;1;2;3;1;low;1780;Links;SOCKEL;PUPPE
AF0402;teilenkodiert;0;3;3;1;5;5;3;low;2922;Rechts;SEIFE;KATZE
AF0402;teilenkodiert;0;3;4;4;5;5;3;low;828;Rechts;LEITER;PILLE
AF0402;teilenkodiert;0;3;5;1;1;4;2;low;2125;Links;PUFFER;CHRIST
AF0402;teilenkodiert;0;3;6;1;0;5;3;low;1483;Links;SÄULE;BRETT
AF0402;teilenkodiert;0;3;7;1;0;0;-3;low;1656;Rechts;MATROSE;ARCHIV
AF0402;teilenkodiert;0;3;8;4;2;3;1;low;2016;Links;KABEL;DEUTUNG
AF0402;teilenkodiert;0;3;9;4;2;3;1;low;1406;Links;KLEBER;VASE
AF0402;teilenkodiert;0;3;10;1;3;2;-1;low;1625;Links;WEISE;KRAUT
AF0402;teilenkodiert;0;3;11;4;0;5;3;low;2015;Links;FÜRST;DICHTER
AF0402;teilenkodiert;0;3;12;1;0;5;3;low;1280;Links;WERBUNG;ZAHN
AF0402;teilenkodiert;0;3;13;4;5;0;-3;low;1828;Links;DOZENT;ANSATZ
AF0402;teilenkodiert;0;3;14;0;5;5;0;low;1890;None;VERLAUF;LAUB
AF0402;teilenkodiert;0;3;15;1;4;1;-2;low;2015;Links;ANHANG;TEPPICH
AF0402;teilenkodiert;0;3;16;0;0;0;0;low;2016;None;HÜGEL;PATER
AF0402;teilenkodiert;0;3;17;4;2;3;1;low;1203;Links;DACH;STALL
AF0402;teilenkodiert;0;3;18;1;4;1;-2;low;2828;Links;RUNDWEG;PRINZIP
AF0402;teilenkodiert;0;3;19;0;0;0;0;low;1781;None;KRAWATTE;PATENT
AF0402;teilenkodiert;0;3;20;1;2;3;1;low;2280;Links;MAGAZIN;MEHL
AF0402;teilenkodiert;0;3;21;4;5;5;3;low;2233;Rechts;HANDWERK;BEIHILFE
AF0402;teilenkodiert;0;3;22;4;5;0;-3;low;1171;Links;SKELETT;FORMEL
AF0402;teilenkodiert;0;3;23;4;0;5;3;low;1937;Links;ABSICHT;TEXT
AF0402;teilenkodiert;0;3;24;1;0;5;3;low;1139;Links;KRIPPE;NEUZEIT
AF0402;teilenkodiert;0;3;25;1;0;0;-3;low;1421;Rechts;RADIO;GELTUNG
AF0402;teilenkodiert;0;3;26;1;2;2;-1;low;2016;Rechts;ZEUG;GEHIRN
AF0402;teilenkodiert;0;3;27;4;3;3;1;low;1717;Rechts;DAMPFER;SCHNEE
AF0402;teilenkodiert;0;3;28;4;5;5;3;low;1796;Rechts;SPRUCH;REDE
AF0402;teilenkodiert;0;3;29;1;1;1;-2;low;2531;Rechts;HÄNDLER;BIER
AF0402;teilenkodiert;0;3;30;1;3;3;1;low;1797;Rechts;KANNE;ANFRAGE
AF0402;teilenkodiert;0;3;31;0;2;2;0;low;1875;None;GONDEL;RELATION
AF0402;teilenkodiert;0;3;32;4;0;5;3;low;1827;Links;WINTER;SCHNUR
AF0402;teilenkodiert;0;3;33;4;3;2;-1;low;1422;Links;KÄSE;HAUSHALT
AF0402;teilenkodiert;0;3;34;4;3;2;-1;low;1468;Links;HERD;STAHL
AF0402;teilenkodiert;0;3;35;0;3;3;0;low;1516;None;KARTE;TÜTE
AF0402;teilenkodiert;0;3;36;4;5;5;3;low;1671;Rechts;BÜRO;THERAPIE
AF0402;teilenkodiert;0;3;37;1;5;5;3;low;1671;Rechts;SEKRETÄR;HOLZ
AF0402;teilenkodiert;0;3;38;1;1;4;2;low;1828;Links;MOLEKÜL;BUND
AF0402;teilenkodiert;0;3;39;4;3;3;1;low;1297;Rechts;FLÖTE;KONGRESS
AF0402;teilenkodiert;0;3;40;0;0;0;0;low;1750;None;ABFLUSS;AKTIE
AF0402;teilenkodiert;0;3;41;0;0;0;0;low;1422;None;TENNIS;ARBEITER
AF0402;teilenkodiert;0;3;42;4;5;5;3;low;1828;Rechts;FRAGMENT;VERMERK
AF0402;teilenkodiert;0;3;43;4;3;2;-1;low;1312;Links;SÄGE;RUDEL
AF0402;teilenkodiert;0;3;44;4;2;2;-1;low;2219;Rechts;KOPPEL;INSTANZ
AF0402;teilenkodiert;0;3;45;0;0;0;0;low;1891;None;TASSE;NACHWEIS
AF0402;teilenkodiert;0;3;46;4;5;5;3;low;1625;Rechts;POSITION;WARE
AF0402;teilenkodiert;0;3;47;0;2;2;0;low;1858;None;QUOTE;FAZIT
AF0402;teilenkodiert;0;3;48;0;2;2;0;low;1578;None;HELM;OPIUM
AF0402;teilenkodiert;0;3;49;4;0;5;3;low;1469;Links;ZUSTAND;SZENE
AF0402;teilenkodiert;0;3;50;0;0;0;0;low;2421;None;ZWERG;KUPFER
AF0402;teilenkodiert;0;3;51;0;0;0;0;low;1639;None;DATEI;LAGER
AF0402;teilenkodiert;0;3;52;4;0;0;-3;low;1516;Rechts;SYMBOL;ERHEBUNG
AF0402;teilenkodiert;0;3;53;4;3;3;1;low;1952;Rechts;SORTE;AMPEL
AF0402;teilenkodiert;0;3;54;4;3;2;-1;low;3171;Links;BÜNDNIS;VERZICHT
AF0402;teilenkodiert;0;3;55;1;5;0;-3;low;1875;Links;BUDE;VORSTAND
AF0402;teilenkodiert;0;3;56;1;5;0;-3;low;1500;Links;RESERVE;HEFT
AF0402;teilenkodiert;0;3;57;4;3;3;1;low;1858;Rechts;ANLAGE;HAAR
AF0402;teilenkodiert;0;3;58;4;5;5;3;low;1469;Rechts;GEMISCH;STRUMPF
AF0402;teilenkodiert;0;3;59;4;5;5;3;low;1483;Rechts;AUSKUNFT;WADE
AF0402;teilenkodiert;0;3;60;1;5;5;3;low;1203;Rechts;FAKTOR;METHODE
AF0402;teilenkodiert;0;3;61;4;1;4;2;low;2811;Links;KANU;STECKER
AF0402;teilenkodiert;0;3;62;1;0;5;3;low;1703;Links;GEWICHT;IMBISS
AF0402;teilenkodiert;0;3;63;1;2;3;1;low;2937;Links;SCHEMA;FANG
AF0402;teilenkodiert;0;3;64;1;3;3;1;low;2342;Rechts;VERBAND;BEFUGNIS
AF0402;teilenkodiert;0;3;65;1;5;5;3;low;1359;Rechts;SATTEL;EICHE
AF0402;teilenkodiert;0;3;66;0;5;5;0;low;2641;None;VERSION;BEZUG
AF0402;teilenkodiert;0;3;67;1;3;3;1;low;1875;Rechts;VISUM;GLAS
AF0402;teilenkodiert;0;3;68;1;0;0;-3;low;2047;Rechts;SPANGE;ERHÖHUNG
AF0402;teilenkodiert;0;3;69;0;3;3;0;low;1672;None;UMSTAND;PFAHL
AF0402;teilenkodiert;0;3;70;4;5;5;3;low;1780;Rechts;BOTE;TASCHE
AF0402;teilenkodiert;0;3;71;1;5;5;3;low;2485;Rechts;GRÜNDUNG;BRAUCH
AF0402;teilenkodiert;0;3;72;0;2;2;0;low;2483;None;VERS;LIZENZ
AF0402;teilenkodiert;0;3;73;4;5;0;-3;low;2030;Links;SUBSTANZ;PERIODE
AF0402;teilenkodiert;0;3;74;1;5;5;3;low;1375;Rechts;FUNKTION;MASSE
AF0402;teilenkodiert;0;3;75;0;0;0;0;low;1625;None;ZIGARRE;SCHÜRZE
AF0402;teilenkodiert;0;3;76;4;4;1;-2;low;1406;Links;PILZ;LÄUFER
AF0402;teilenkodiert;0;3;77;1;3;3;1;low;1421;Rechts;SITZ;NONNE
AF0402;teilenkodiert;0;3;78;1;0;5;3;low;1578;Links;PAPRIKA;KORN
AF0402;teilenkodiert;0;3;79;1;5;5;3;low;1937;Rechts;BAGGER;DATUM
AF0402;teilenkodiert;0;3;80;1;4;1;-2;low;2202;Links;HAUBE;NIERE
AF0402;teilenkodiert;0;3;81;1;5;0;-3;low;1516;Links;SAMMLUNG;FISCHER
AF0402;teilenkodiert;0;3;82;4;0;5;3;low;2562;Links;PREDIGT;KRABBE
AF0402;teilenkodiert;0;3;83;0;5;5;0;low;3250;None;PRIESTER;BETRAG
AF0402;teilenkodiert;0;3;84;4;1;4;2;low;2250;Links;AUSNAHME;REPORTER
AF0402;teilenkodiert;0;3;85;1;4;1;-2;low;2046;Links;RAUPE;VERLAG
AF0402;teilenkodiert;0;3;86;1;3;3;1;low;2375;Rechts;RANG;MAUS
AF0402;teilenkodiert;0;3;87;4;0;0;-3;low;2031;Rechts;KAPSEL;GESCHIRR
AF0402;teilenkodiert;0;3;88;0;3;3;0;low;1484;None;STEMPEL;PRINZ
AF0402;teilenkodiert;0;3;89;4;3;3;1;low;1875;Rechts;STATION;VORHANG
AF0402;teilenkodiert;1;0;0;3;0;5;3;low;3516;Links;visual\obj063broom.gif;visual\obj412couch.gif
AF0402;teilenkodiert;1;0;1;3;1;1;-2;low;2703;Rechts;visual\obj358rock.gif;visual\obj077cannon.gif
AF0402;teilenkodiert;1;0;2;3;0;5;3;low;1453;Links;visual\obj074can.gif;visual\obj034bear.gif
AF0402;teilenkodiert;1;0;3;0;5;5;0;low;2000;None;visual\obj293paintbrush.gif;visual\obj046blimp.gif
AF0402;teilenkodiert;1;0;4;1;3;3;1;low;4062;Rechts;visual\obj087celery.gif;visual\obj173trash.gif
AF0402;teilenkodiert;1;0;5;0;2;2;0;low;2000;None;visual\obj080hat.gif;visual\obj227kite.gif
AF0402;teilenkodiert;1;0;6;1;1;4;2;low;1546;Links;visual\obj252lock.gif;visual\obj515woman.gif
AF0402;teilenkodiert;1;0;7;0;3;3;0;low;2421;None;visual\obj259match.gif;visual\obj143earring.gif
AF0402;teilenkodiert;1;0;8;3;5;5;3;low;1452;Rechts;visual\obj246lion.gif;visual\obj213house.gif
AF0402;teilenkodiert;1;0;9;3;5;5;3;low;1187;Rechts;visual\obj150faucet.gif;visual\obj129doll.gif
AF0402;teilenkodiert;1;0;10;3;5;5;3;low;1343;Rechts;visual\obj212hose.gif;visual\obj261microphone.gif
AF0402;teilenkodiert;1;0;11;3;4;4;2;low;3843;Rechts;visual\obj115crib.gif;visual\obj291package.gif
AF0402;teilenkodiert;1;0;12;1;1;4;2;low;2094;Links;visual\obj300paperclip.gif;visual\obj447tv.gif
AF0402;teilenkodiert;1;0;13;1;1;4;2;low;1703;Links;visual\obj220jacket.gif;visual\obj415spatula.gif
AF0402;teilenkodiert;1;0;14;3;0;5;3;low;1187;Links;visual\obj454tiger.gif;visual\obj117crown.gif
AF0402;teilenkodiert;1;0;15;0;3;3;0;low;2703;None;visual\obj053bottle.gif;visual\obj187grasshopper.gif
AF0402;teilenkodiert;1;0;16;1;3;2;-1;low;1327;Links;visual\obj514wolf.gif;visual\obj200hay.gif
AF0402;teilenkodiert;1;0;17;1;3;2;-1;low;2422;Links;visual\obj460grave.gif;visual\obj241lettuce.gif
AF0402;teilenkodiert;1;0;18;3;0;5;3;low;1468;Links;visual\obj413soldier.gif;visual\obj279necklace.gif
AF0402;teilenkodiert;1;0;19;1;5;5;3;low;4155;Rechts;visual\obj148eye.gif;visual\obj374salt.gif
AF0402;teilenkodiert;1;0;20;3;5;5;3;low;1312;Rechts;visual\obj245lightswitch.gif;visual\obj476turtle.gif
AF0402;teilenkodiert;1;0;21;3;3;3;1;low;2171;Rechts;visual\obj459tomato.gif;visual\obj084tape.gif
AF0402;teilenkodiert;1;0;22;0;2;2;0;low;1953;None;visual\obj236leaf.gif;visual\obj490bricks.gif
AF0402;teilenkodiert;1;0;23;1;3;3;1;low;1907;Rechts;visual\obj109corkscrew.gif;visual\obj497wateringcan.gif
AF0402;teilenkodiert;1;0;24;1;1;4;2;low;1952;Links;visual\obj405slingshot.gif;visual\obj449tent.gif
AF0402;teilenkodiert;1;0;25;1;2;3;1;low;2280;Links;visual\obj146envelope.gif;visual\obj088chain.gif
AF0402;teilenkodiert;1;0;26;3;3;3;1;low;2733;Rechts;visual\obj473trumpet.gif;visual\obj056box.gif
AF0402;teilenkodiert;1;0;27;3;0;5;3;low;1921;Links;visual\obj380scissors.gif;visual\obj179girl.gif
AF0402;teilenkodiert;1;0;28;1;3;3;1;low;3000;Rechts;visual\obj006ant.gif;visual\obj086cat.gif
AF0402;teilenkodiert;1;0;29;1;3;2;-1;low;3094;Links;visual\obj137drill.gif;visual\obj079canopener.gif
AF0402;teilenkodiert;1;0;30;0;2;2;0;low;3296;None;visual\obj466stoplight.gif;visual\obj174gas.gif
AF0402;teilenkodiert;1;0;31;0;3;3;0;low;4859;None;visual\obj285nut.gif;visual\obj367rug.gif
AF0402;teilenkodiert;1;0;32;3;3;3;1;low;1609;Rechts;visual\obj401skis.gif;visual\obj103coat.gif
AF0402;teilenkodiert;1;0;33;0;2;2;0;low;2125;None;visual\obj379scarf.gif;visual\obj340purse.gif
AF0402;teilenkodiert;1;0;34;1;3;2;-1;low;1733;Links;visual\obj458toilet.gif;visual\obj076cane.gif
AF0402;teilenkodiert;1;0;35;3;1;4;2;low;3484;Links;visual\obj105pillar.gif;visual\obj486volcano.gif
AF0402;teilenkodiert;1;0;36;1;2;3;1;low;1750;Links;visual\obj403sled.gif;visual\obj096cigarette.gif
AF0402;teilenkodiert;1;0;37;1;4;4;2;low;3515;Rechts;visual\obj083carrot.gif;visual\obj038bee.gif
AF0402;teilenkodiert;1;0;38;1;2;3;1;low;2358;Links;visual\obj363roof.gif;visual\obj393shoe.gif
AF0402;teilenkodiert;1;0;39;0;3;3;0;low;1516;None;visual\obj487waffle.gif;visual\obj118block.gif
AF0402;teilenkodiert;1;0;40;1;2;2;-1;low;1500;Rechts;visual\obj491wallet.gif;visual\obj016ax.gif
AF0402;teilenkodiert;1;0;41;1;2;3;1;low;1671;Links;visual\obj199hat.gif;visual\obj247lips.gif
AF0402;teilenkodiert;1;0;42;1;2;3;1;low;1328;Links;visual\obj376saw.gif;visual\obj390shell.gif
AF0402;teilenkodiert;1;0;43;1;2;3;1;low;1125;Links;visual\obj469tree.gif;visual\obj499spiderweb.gif
AF0402;teilenkodiert;1;0;44;0;2;2;0;low;2187;None;visual\obj308peas.gif;visual\obj348rainbow.gif
AF0402;teilenkodiert;1;0;45;1;3;3;1;low;2468;Rechts;visual\obj121deer.gif;visual\obj409snake.gif
AF0402;teilenkodiert;1;0;46;3;3;3;1;low;1983;Rechts;visual\obj078canoe.gif;visual\obj347rain.gif
AF0402;teilenkodiert;1;0;47;1;2;3;1;low;5030;Links;visual\obj025balloon.gif;visual\obj186grapes.gif
AF0402;teilenkodiert;1;0;48;1;2;2;-1;low;1858;Rechts;visual\obj286octopus.gif;visual\obj442tear.gif
AF0402;teilenkodiert;1;0;49;3;2;2;-1;low;2483;Rechts;visual\obj498watermelon.gif;visual\obj049bomb.gif
AF0402;teilenkodiert;1;0;50;1;2;3;1;low;1828;Links;visual\obj357robot.gif;visual\obj480unicorn.gif
AF0402;teilenkodiert;1;0;51;3;3;3;1;low;2764;Rechts;visual\obj294paint.gif;visual\obj147eskimo.gif
AF0402;teilenkodiert;1;0;52;3;3;2;-1;low;1968;Links;visual\obj345radio.gif;visual\obj033bathtub.gif
AF0402;teilenkodiert;1;0;53;1;2;3;1;low;4141;Links;visual\obj349rake.gif;visual\obj239leopard.gif
AF0402;teilenkodiert;1;0;54;0;2;2;0;low;1656;None;visual\obj276music.gif;visual\obj307pear.gif
AF0402;teilenkodiert;1;0;55;1;3;3;1;low;1358;Rechts;visual\obj503wheel.gif;visual\obj438tail.gif
AF0402;teilenkodiert;1;0;56;1;2;3;1;low;3405;Links;visual\obj505wheelchair.gif;visual\obj372sailboat.gif
AF0402;teilenkodiert;1;0;57;3;2;3;1;low;1921;Links;visual\obj029barbecue.gif;visual\obj072camel.gif
AF0402;teilenkodiert;1;0;58;3;3;3;1;low;2358;Rechts;visual\obj193hammer.gif;visual\obj406slipper.gif
AF0402;teilenkodiert;1;0;59;1;3;2;-1;low;1250;Links;visual\obj299paper.gif;visual\obj004alligator.gif
AF0402;teilenkodiert;1;0;60;3;2;3;1;low;1733;Links;visual\obj298pants.gif;visual\obj081car.gif
AF0402;teilenkodiert;1;0;61;3;2;3;1;low;4703;Links;visual\obj043bicycle.gif;visual\obj500well.gif
AF0402;teilenkodiert;1;0;62;1;3;2;-1;low;2235;Links;visual\obj483vase.gif;visual\obj351recordplayer.gif
AF0402;teilenkodiert;1;0;63;0;3;3;0;low;2812;None;visual\obj373sailor.gif;visual\obj036beaver.gif
AF0402;teilenkodiert;1;0;64;1;3;3;1;low;1562;Rechts;visual\obj175fence.gif;visual\obj508wig.gif
AF0402;teilenkodiert;1;0;65;1;4;4;2;low;1797;Rechts;visual\obj040bell.gif;visual\obj328pliers.gif
AF0402;teilenkodiert;1;0;66;1;3;2;-1;low;2421;Links;visual\obj274mousetrap.gif;visual\obj066butter.gif
AF0402;teilenkodiert;1;0;67;3;4;4;2;low;2264;Rechts;visual\obj264mixer.gif;visual\obj297panda.gif
AF0402;teilenkodiert;1;0;68;3;0;5;3;low;1750;Links;visual\obj435sword.gif;visual\obj019stroller.gif
AF0402;teilenkodiert;1;0;69;1;5;0;-3;low;1562;Links;visual\obj134drawer.gif;visual\obj354gun.gif
AF0402;teilenkodiert;1;0;70;3;1;4;2;low;2671;Links;visual\obj365rope.gif;visual\obj465tractor.gif
AF0402;teilenkodiert;1;0;71;1;3;3;1;low;2093;Rechts;visual\obj042bench.gif;visual\obj182globe.gif
AF0402;teilenkodiert;1;0;72;0;3;3;0;low;1234;None;visual\obj467train.gif;visual\obj272mountain.gif
AF0402;teilenkodiert;1;0;73;0;2;2;0;low;1625;None;visual\obj223jumprope.gif;visual\obj191brush.gif
AF0402;teilenkodiert;1;0;74;1;2;2;-1;low;1858;Rechts;visual\obj054bowl.gif;visual\obj456toaster.gif
AF0402;teilenkodiert;1;0;75;1;3;3;1;low;2953;Rechts;visual\obj158fishingpole.gif;visual\obj244lightning.gif
AF0402;teilenkodiert;1;0;76;1;2;2;-1;low;1546;Rechts;visual\obj315picture.gif;visual\obj231ladder.gif
AF0402;teilenkodiert;1;0;77;0;2;2;0;low;2266;None;visual\obj332popcorn.gif;visual\obj477tweezers.gif
AF0402;teilenkodiert;1;0;78;0;2;2;0;low;1328;None;visual\obj501whale.gif;visual\obj045bird.gif
AF0402;teilenkodiert;1;0;79;0;2;2;0;low;1266;None;visual\obj110corn.gif;visual\obj225key.gif
AF0402;teilenkodiert;1;0;80;3;2;2;-1;low;1483;Rechts;visual\obj189gun.gif;visual\obj242lightbulb.gif
AF0402;teilenkodiert;1;0;81;3;0;5;3;low;1391;Links;visual\obj202heel.gif;visual\obj325pitchfork.gif
AF0402;teilenkodiert;1;0;82;3;3;3;1;low;1937;Rechts;visual\obj352refrigerator.gif;visual\obj099clock.gif
AF0402;teilenkodiert;1;0;83;3;5;5;3;low;1437;Rechts;visual\obj142ear.gif;visual\obj470tripod.gif
AF0402;teilenkodiert;1;0;84;1;4;4;2;low;1578;Rechts;visual\obj095church.gif;visual\obj160flashlight.gif
AF0402;teilenkodiert;1;0;85;1;5;5;3;low;1906;Rechts;visual\obj229knight.gif;visual\obj507whistle.gif
AF0402;teilenkodiert;1;0;86;3;3;3;1;low;2968;Rechts;visual\obj302parrot.gif;visual\obj210hook.gif
AF0402;teilenkodiert;1;0;87;3;2;2;-1;low;3436;Rechts;visual\obj003airplane.gif;visual\obj391boat.gif
AF0402;teilenkodiert;1;0;88;3;4;4;2;low;1859;Rechts;visual\obj168fork.gif;visual\obj388shark.gif
AF0402;teilenkodiert;1;0;89;3;3;3;1;low;1594;Rechts;visual\obj368ruler.gif;visual\obj204helmet.gif
AF0402;teilenkodiert;1;0;90;0;2;2;0;low;4218;None;visual\obj141eagle.gif;visual\obj306peanut.gif
AF0402;teilenkodiert;1;0;91;3;1;1;-2;low;1562;Rechts;visual\obj140dustpan.gif;visual\obj170fox.gif
AF0402;teilenkodiert;1;0;92;0;1;1;0;low;1625;None;visual\obj057boy.gif;visual\obj249lizard.gif
AF0402;teilenkodiert;1;0;93;1;2;2;-1;low;1453;Rechts;visual\obj502wheat.gif;visual\obj169fountain.gif
AF0402;teilenkodiert;1;0;94;1;2;2;-1;low;2593;Rechts;visual\obj504wheelbarrow.gif;visual\obj416spider.gif
AF0402;teilenkodiert;1;0;95;1;0;0;-3;low;1641;Rechts;visual\obj010fishtank.gif;visual\obj494closet.gif
AF0402;teilenkodiert;1;0;96;0;2;2;0;low;1858;None;visual\obj022bag.gif;visual\obj211horse.gif
AF0402;teilenkodiert;1;0;97;3;0;5;3;low;1421;Links;visual\obj404slide.gif;visual\obj183glove.gif
AF0402;teilenkodiert;1;0;98;1;3;2;-1;low;2375;Links;visual\obj338priest.gif;visual\obj429submarine.gif
AF0402;teilenkodiert;1;0;99;3;2;3;1;low;1546;Links;visual\obj073camera.gif;visual\obj101cloud.gif
AF0402;teilenkodiert;1;0;100;0;3;3;0;low;2985;None;visual\obj205highchair.gif;visual\obj219jack.gif
AF0402;teilenkodiert;1;0;101;3;0;5;3;low;1421;Links;visual\obj082carousel.gif;visual\obj089chair.gif
AF0402;teilenkodiert;1;0;102;3;3;2;-1;low;1688;Links;visual\obj251lobster.gif;visual\obj484vest.gif
AF0402;teilenkodiert;1;0;103;0;4;4;0;low;2140;None;visual\obj262microscope.gif;visual\obj051book.gif
AF0402;teilenkodiert;1;0;104;1;3;2;-1;low;2766;Links;visual\obj519zebra.gif;visual\obj156firetruck.gif
AF0402;teilenkodiert;1;0;105;3;3;3;1;low;1578;Rechts;visual\obj221jar.gif;visual\obj444teeth.gif
AF0402;teilenkodiert;1;0;106;3;3;2;-1;low;1390;Links;visual\obj266monkey.gif;visual\obj190hair.gif
AF0402;teilenkodiert;1;0;107;0;3;3;0;low;3625;None;visual\obj020backpack.gif;visual\obj192hamburger.gif
AF0402;teilenkodiert;1;0;108;3;2;3;1;low;1953;Links;visual\obj397sink.gif;visual\obj314piano.gif
AF0402;teilenkodiert;1;0;109;3;2;3;1;low;1405;Links;visual\obj217iron.gif;visual\obj059bra.gif
AF0402;teilenkodiert;1;0;110;3;2;3;1;low;2453;Links;visual\obj188guitar.gif;visual\obj419squirrel.gif
AF0402;teilenkodiert;1;0;111;1;2;2;-1;low;1375;Rechts;visual\obj430suitcase.gif;visual\obj385seal.gif
AF0402;teilenkodiert;1;0;112;1;5;5;3;low;1952;Rechts;visual\obj144egg.gif;visual\obj305peacock.gif
AF0402;teilenkodiert;1;0;113;3;5;5;3;low;1093;Rechts;visual\obj303paw.gif;visual\obj335pot.gif
AF0402;teilenkodiert;1;0;114;3;3;2;-1;low;3890;Links;visual\obj356road.gif;visual\obj382screw.gif
AF0402;teilenkodiert;1;0;115;0;2;2;0;low;1812;None;visual\obj312pencilsharpener.gif;visual\obj065bus.gif
AF0402;teilenkodiert;1;0;116;3;2;3;1;low;1844;Links;visual\obj162floor.gif;visual\obj185gorilla.gif
AF0402;teilenkodiert;1;0;117;1;2;2;-1;low;1234;Rechts;visual\obj215icecreamcone.gif;visual\obj375sandwich.gif
AF0402;teilenkodiert;1;0;118;1;2;2;-1;low;1437;Rechts;visual\obj052boot.gif;visual\obj222puzzle.gif
AF0402;teilenkodiert;1;0;119;1;2;2;-1;low;1593;Rechts;visual\obj395shovel.gif;visual\obj280needle.gif
AF0402;teilenkodiert;1;0;120;0;3;3;0;low;2171;None;visual\obj437table.gif;visual\obj361rollerskate.gif
AF0402;teilenkodiert;1;0;121;3;0;5;3;low;2312;Links;visual\obj318piggybank.gif;visual\obj091cherry.gif
AF0402;teilenkodiert;1;0;122;1;3;2;-1;low;4016;Links;visual\obj479umbrella.gif;visual\obj370safe.gif
AF0402;teilenkodiert;1;0;123;3;3;3;1;low;1391;Rechts;visual\obj284nurse.gif;visual\obj206hinge.gif
AF0402;teilenkodiert;1;0;124;3;1;4;2;low;2217;Links;visual\obj474chest.gif;visual\obj197hanger.gif
AF0402;teilenkodiert;1;1;0;3;2;3;1;low;2468;Links;visual\obj488wagon.gif;visual\obj071cake.gif
AF0402;teilenkodiert;1;1;1;1;3;2;-1;low;1280;Links;visual\obj258mask.gif;visual\obj061bride.gif
AF0402;teilenkodiert;1;1;2;1;3;3;1;low;1203;Rechts;visual\obj064brush.gif;visual\obj176genie.gif
AF0402;teilenkodiert;1;1;3;1;5;0;-3;low;2328;Links;visual\obj062bridge.gif;visual\obj317bird.gif
AF0402;teilenkodiert;1;1;4;3;4;4;2;low;1937;Rechts;visual\obj058branch.gif;visual\obj448tennisracket.gif
AF0402;teilenkodiert;1;1;5;3;5;5;3;low;1531;Rechts;visual\obj198harp.gif;visual\obj417thread.gif
AF0402;teilenkodiert;1;1;6;3;3;3;1;low;3250;Rechts;visual\obj093chicken.gif;visual\obj495washingmachine.gif
AF0402;teilenkodiert;1;1;7;1;2;2;-1;low;1500;Rechts;visual\obj181glasses.gif;visual\obj037bed.gif
AF0402;teilenkodiert;1;1;8;3;2;2;-1;low;1437;Rechts;visual\obj050bone.gif;visual\obj000x.gif
AF0402;teilenkodiert;1;1;9;1;4;4;2;low;2155;Rechts;visual\obj270mosquito.gif;visual\obj159flag.gif
AF0402;teilenkodiert;1;1;10;0;3;3;0;low;1578;None;visual\obj017baby.gif;visual\obj254magnet.gif
AF0402;teilenkodiert;1;1;11;1;2;2;-1;low;1327;Rechts;visual\obj464railroadtracks.gif;visual\obj031basket.gif
AF0402;teilenkodiert;1;1;12;3;3;2;-1;low;2968;Links;visual\obj178giraffe.gif;visual\obj273mouse.gif
AF0402;teilenkodiert;1;1;13;1;3;2;-1;low;1375;Links;visual\obj203helicopter.gif;visual\obj007antlers.gif
AF0402;teilenkodiert;1;1;14;0;2;2;0;low;2280;None;visual\obj410snowman.gif;visual\obj394shoulder.gif
AF0402;teilenkodiert;1;1;15;1;2;2;-1;low;1391;Rechts;visual\obj481unicycle.gif;visual\obj119cup.gif
AF0402;teilenkodiert;1;1;16;3;2;2;-1;low;2516;Rechts;visual\obj471trophy.gif;visual\obj047wood.gif
AF0402;teilenkodiert;1;1;17;1;3;3;1;low;1453;Rechts;visual\obj468trashcan.gif;visual\obj407smoke.gif
AF0402;teilenkodiert;1;1;18;3;5;5;3;low;1891;Rechts;visual\obj122dentist.gif;visual\obj195hand.gif
AF0402;teilenkodiert;1;1;19;0;0;0;0;low;2108;None;visual\obj414spaghetti.gif;visual\obj152fence.gif
AF0402;teilenkodiert;1;1;20;3;2;3;1;low;2186;Links;visual\obj292bucket.gif;visual\obj263mirror.gif
AF0402;teilenkodiert;1;1;21;3;4;1;-2;low;2406;Links;visual\obj107cookie.gif;visual\obj048boat.gif
AF0402;teilenkodiert;1;1;22;0;3;3;0;low;2062;None;visual\obj180glass.gif;visual\obj451thimble.gif
AF0402;teilenkodiert;1;1;23;1;3;3;1;low;1718;Rechts;visual\obj135dress.gif;visual\obj002acorn.gif
AF0402;teilenkodiert;1;1;24;1;2;3;1;low;1531;Links;visual\obj172funnel.gif;visual\obj287onion.gif
AF0402;teilenkodiert;1;1;25;1;4;1;-2;low;2656;Links;visual\obj346radish.gif;visual\obj489waiter.gif
AF0402;teilenkodiert;1;1;26;1;3;2;-1;low;1812;Links;visual\obj114crackers.gif;visual\obj472truck.gif
AF0402;teilenkodiert;1;1;27;1;1;4;2;low;1625;Links;visual\obj184goat.gif;visual\obj423stethoscope.gif
AF0402;teilenkodiert;1;1;28;3;4;4;2;low;2141;Rechts;visual\obj383screwdriver.gif;visual\obj462top.gif
AF0402;teilenkodiert;1;1;29;0;4;4;0;low;1906;None;visual\obj518yoyo.gif;visual\obj196handcuffs.gif
AF0402;teilenkodiert;1;1;30;3;4;1;-2;low;1342;Links;visual\obj400skirt.gif;visual\obj039bug.gif
AF0402;teilenkodiert;1;1;31;1;5;5;3;low;1218;Rechts;visual\obj024ball.gif;visual\obj378scale.gif
AF0402;teilenkodiert;1;1;32;3;5;5;3;low;1561;Rechts;visual\obj333popsicle.gif;visual\obj131donkey.gif
AF0402;teilenkodiert;1;1;33;1;5;5;3;low;1875;Rechts;visual\obj342queen.gif;visual\obj067butterfly.gif
AF0402;teilenkodiert;1;1;34;0;2;2;0;low;1687;None;visual\obj208hoe.gif;visual\obj475turkey.gif
AF0402;teilenkodiert;1;1;35;3;4;4;2;low;2500;Rechts;visual\obj399skeleton.gif;visual\obj327plate.gif
AF0402;teilenkodiert;1;1;36;1;5;5;3;low;1625;Rechts;visual\obj278neck.gif;visual\obj041belt.gif
AF0402;teilenkodiert;1;1;37;3;4;4;2;low;2530;Rechts;visual\obj253log.gif;visual\obj517wrench.gif
AF0402;teilenkodiert;1;1;38;3;3;3;1;low;2046;Rechts;visual\obj453tie.gif;visual\obj018bottle.gif
AF0402;teilenkodiert;1;1;39;3;1;4;2;low;1875;Links;visual\obj386seesaw.gif;visual\obj194hammock.gif
AF0402;teilenkodiert;1;1;40;0;3;3;0;low;2655;None;visual\obj138drum.gif;visual\obj420stairs.gif
AF0402;teilenkodiert;1;1;41;3;3;3;1;low;1577;Rechts;visual\obj434swing.gif;visual\obj128dog.gif
AF0402;teilenkodiert;1;1;42;1;3;3;1;low;1125;Rechts;visual\obj132door.gif;visual\obj000star.gif
AF0402;teilenkodiert;1;1;43;3;2;3;1;low;1641;Links;visual\obj330policeman.gif;visual\obj422steeringwheel.gif
AF0402;teilenkodiert;1;1;44;1;2;2;-1;low;1266;Rechts;visual\obj255mailbox.gif;visual\obj455tire.gif
AF0402;teilenkodiert;1;1;45;3;2;3;1;low;1219;Links;visual\obj216igloo.gif;visual\obj377saxophone.gif
AF0402;teilenkodiert;1;1;46;0;2;2;0;low;1234;None;visual\obj496watch.gif;visual\obj295palmtree.gif
AF0402;teilenkodiert;1;1;47;0;2;2;0;low;1171;None;visual\obj492walnut.gif;visual\obj139duck.gif
AF0402;teilenkodiert;1;1;48;0;2;2;0;low;1265;None;visual\obj369saddle.gif;visual\obj516worm.gif
AF0402;teilenkodiert;1;1;49;1;3;2;-1;low;1577;Links;visual\obj321pinecone.gif;visual\obj028banjo.gif
AF0402;teilenkodiert;1;1;50;3;2;3;1;low;1266;Links;visual\obj214firehydrant.gif;visual\obj166foot.gif
AF0402;teilenkodiert;1;1;51;1;2;3;1;low;2562;Links;visual\obj009apple.gif;visual\obj097city.gif
AF0402;teilenkodiert;1;1;52;3;2;3;1;low;1375;Links;visual\obj070cage.gif;visual\obj013artichoke.gif
AF0402;teilenkodiert;1;1;53;0;2;2;0;low;1671;None;visual\obj353rhinoceros.gif;visual\obj389sheep.gif
AF0402;teilenkodiert;1;1;54;0;2;2;0;low;1344;None;visual\obj443teepee.gif;visual\obj336potato.gif
AF0402;teilenkodiert;1;1;55;3;2;2;-1;low;1844;Rechts;visual\obj450thermos.gif;visual\obj402skunk.gif
AF0402;teilenkodiert;1;1;56;3;3;3;1;low;969;Rechts;visual\obj157fish.gif;visual\obj171frog.gif
AF0402;teilenkodiert;1;1;57;3;2;2;-1;low;1030;Rechts;visual\obj277nail.gif;visual\obj035beard.gif
AF0402;teilenkodiert;1;1;58;1;3;2;-1;low;1047;Links;visual\obj230knot.gif;visual\obj155fireman.gif
AF0402;teilenkodiert;1;1;59;1;3;3;1;low;1422;Rechts;visual\obj289ostrich.gif;visual\obj167football.gif
AF0402;teilenkodiert;1;1;60;3;2;3;1;low;1202;Links;visual\obj428stroller.gif;visual\obj350razor.gif
AF0402;teilenkodiert;1;1;61;1;2;2;-1;low;1078;Rechts;visual\obj154fire.gif;visual\obj360rockingchair.gif
AF0402;teilenkodiert;1;1;62;1;2;3;1;low;1467;Links;visual\obj268moose.gif;visual\obj265priest.gif
AF0402;teilenkodiert;1;1;63;3;3;2;-1;low;1375;Links;visual\obj341pyramid.gif;visual\obj145elephant.gif
AF0402;teilenkodiert;1;1;64;1;3;2;-1;low;1077;Links;visual\obj068button.gif;visual\obj250llama.gif
AF0402;teilenkodiert;1;1;65;1;2;3;1;low;906;Links;visual\obj275mushroom.gif;visual\obj364rooster.gif
AF0402;teilenkodiert;1;1;66;1;2;3;1;low;1438;Links;visual\obj055bow.gif;visual\obj218ironingboard.gif
AF0402;teilenkodiert;1;1;67;1;2;2;-1;low;1108;Rechts;visual\obj344raccoon.gif;visual\obj387sewingmachine.gif
AF0402;teilenkodiert;1;1;68;1;2;3;1;low;1078;Links;visual\obj243lighthouse.gif;visual\obj359rocket.gif
AF0402;teilenkodiert;1;1;69;1;2;3;1;low;812;Links;visual\obj440taperecorder.gif;visual\obj005anchor.gif
AF0402;teilenkodiert;1;1;70;3;3;3;1;low;1125;Rechts;visual\obj044binoculars.gif;visual\obj124desk.gif
AF0402;teilenkodiert;1;1;71;1;2;2;-1;low;625;Rechts;visual\obj513witch.gif;visual\obj408snail.gif
AF0402;teilenkodiert;1;1;72;1;2;2;-1;low;1031;Rechts;visual\obj177ghost.gif;visual\obj323pirate.gif
AF0402;teilenkodiert;1;1;73;1;2;3;1;low;1750;Links;visual\obj520zipper.gif;visual\obj281nest.gif
AF0402;teilenkodiert;1;1;74;0;2;2;0;low;875;None;visual\obj092chest.gif;visual\obj021badge.gif
AF0402;teilenkodiert;1;1;75;0;3;3;0;low;1281;None;visual\obj226king.gif;visual\obj102clown.gif
AF0402;teilenkodiert;1;1;76;1;2;3;1;low;1233;Links;visual\obj240letter.gif;visual\obj371safetypin.gif
AF0402;teilenkodiert;1;1;77;0;2;2;0;low;1796;None;visual\obj396shower.gif;visual\obj257map.gif
AF0402;teilenkodiert;1;1;78;1;0;5;3;low;1718;Links;visual\obj015asparagus.gif;visual\obj433sweater.gif
AF0402;teilenkodiert;1;1;79;0;2;2;0;low;2593;None;visual\obj421statue.gif;visual\obj355ring.gif
AF0402;teilenkodiert;1;1;80;1;2;3;1;low;1483;Links;visual\obj432swan.gif;visual\obj151feather.gif
AF0402;teilenkodiert;1;1;81;3;3;3;1;low;2328;Rechts;visual\obj316pig.gif;visual\obj209hoof.gif
AF0402;teilenkodiert;1;1;82;1;2;2;-1;low;1797;Rechts;visual\obj331pool.gif;visual\obj506whip.gif
AF0402;teilenkodiert;1;1;83;0;2;2;0;low;1655;None;visual\obj290owl.gif;visual\obj436needle.gif
AF0402;teilenkodiert;1;1;84;3;2;2;-1;low;1016;Rechts;visual\obj431sun.gif;visual\obj000triangle.gif
AF0402;teilenkodiert;1;1;85;1;2;3;1;low;1125;Links;visual\obj126dinosaur.gif;visual\obj234lamp.gif
AF0402;teilenkodiert;1;1;86;1;2;3;1;low;1452;Links;visual\obj133dragon.gif;visual\obj304peach.gif
AF0402;teilenkodiert;1;1;87;0;3;3;0;low;1764;None;visual\obj411sock.gif;visual\obj320pineapple.gif
AF0402;teilenkodiert;1;1;88;3;5;5;3;low;1953;Rechts;visual\obj392shirt.gif;visual\obj127doctor.gif
AF0402;teilenkodiert;1;1;89;1;2;3;1;low;3296;Links;visual\obj329plug.gif;visual\obj075candle.gif
AF0402;teilenkodiert;1;1;90;0;3;3;0;low;1844;None;visual\obj301parachute.gif;visual\obj023balcony.gif
AF0402;teilenkodiert;1;1;91;1;3;3;1;low;1077;Rechts;visual\obj282net.gif;visual\obj116cross.gif
AF0402;teilenkodiert;1;1;92;3;2;2;-1;low;1844;Rechts;visual\obj032bat.gif;visual\obj008anvil.gif
AF0402;teilenkodiert;1;1;93;3;3;2;-1;low;1156;Links;visual\obj366rose.gif;visual\obj136dresser.gif
AF0402;teilenkodiert;1;1;94;0;3;3;0;low;1108;None;visual\obj319pillow.gif;visual\obj425stool.gif
AF0402;teilenkodiert;1;1;95;3;2;3;1;low;1500;Links;visual\obj011arm.gif;visual\obj235lawnmower.gif
AF0402;teilenkodiert;1;1;96;3;2;3;1;low;2311;Links;visual\obj446telescope.gif;visual\obj283nose.gif
AF0402;teilenkodiert;1;1;97;3;2;3;1;low;1858;Links;visual\obj384seahorse.gif;visual\obj339pumpkin.gif
AF0402;teilenkodiert;1;1;98;3;2;3;1;low;1469;Links;visual\obj381scorpion.gif;visual\obj310pen.gif
AF0402;teilenkodiert;1;1;99;1;2;2;-1;low;2030;Rechts;visual\obj232ladle.gif;visual\obj337present.gif
AF0402;teilenkodiert;1;1;100;1;1;1;-2;low;2312;Rechts;visual\obj201heart.gif;visual\obj130dolphin.gif
AF0402;teilenkodiert;1;1;101;1;2;2;-1;low;1360;Rechts;visual\obj027bandaid.gif;visual\obj426stove.gif
AF0402;teilenkodiert;1;1;102;1;2;2;-1;low;2483;Rechts;visual\obj207hippo.gif;visual\obj478typewriter.gif
AF0402;teilenkodiert;1;1;103;0;3;3;0;low;1530;None;visual\obj482vacuum.gif;visual\obj362rollingpin.gif
AF0402;teilenkodiert;1;1;104;1;2;3;1;low;1203;Links;visual\obj418spoon.gif;visual\obj238lemon.gif
AF0402;teilenkodiert;1;1;105;0;2;2;0;low;1015;None;visual\obj123desert.gif;visual\obj322pipe.gif
AF0402;teilenkodiert;1;1;106;3;2;2;-1;low;922;Rechts;visual\obj493walrus.gif;visual\obj106comb.gif
AF0402;teilenkodiert;1;1;107;3;2;3;1;low;1077;Links;visual\obj511glass.gif;visual\obj509windmill.gif
AF0402;teilenkodiert;1;1;108;3;2;3;1;low;1764;Links;visual\obj512wing.gif;visual\obj457toe.gif
AF0402;teilenkodiert;1;1;109;3;2;2;-1;low;1467;Rechts;visual\obj296pan.gif;visual\obj098clamp.gif
AF0402;teilenkodiert;1;1;110;0;2;2;0;low;1218;None;visual\obj125diaper.gif;visual\obj510window.gif
AF0402;teilenkodiert;1;1;111;1;4;4;2;low;3203;Rechts;visual\obj445telephone.gif;visual\obj424stocking.gif
AF0402;teilenkodiert;1;1;112;3;4;1;-2;low;2093;Links;visual\obj111cow.gif;visual\obj113crab.gif
AF0402;teilenkodiert;1;1;113;1;0;5;3;low;2344;Links;visual\obj439tank.gif;visual\obj224kangaroo.gif
AF0402;teilenkodiert;1;1;114;3;5;5;3;low;1671;Rechts;visual\obj309pelican.gif;visual\obj343rabbit.gif
AF0402;teilenkodiert;1;1;115;3;3;2;-1;low;1860;Links;visual\obj324pitcher.gif;visual\obj000circle.gif
AF0402;teilenkodiert;1;1;116;3;5;0;-3;low;2219;Links;visual\obj163flower.gif;visual\obj256man.gif
AF0402;teilenkodiert;1;1;117;0;3;3;0;low;2921;None;visual\obj271motorcycle.gif;visual\obj069cactus.gif
AF0402;teilenkodiert;1;1;118;3;1;4;2;low;1625;Links;visual\obj104dime.gif;visual\obj014ashtray.gif
AF0402;teilenkodiert;1;1;119;0;2;2;0;low;2609;None;visual\obj237leg.gif;visual\obj026banana.gif
AF0402;teilenkodiert;1;1;120;3;3;2;-1;low;1547;Links;visual\obj267moon.gif;visual\obj269mop.gif
AF0402;teilenkodiert;1;1;121;3;1;4;2;low;2000;Links;visual\obj260medal.gif;visual\obj461toothbrush.gif
AF0402;teilenkodiert;1;1;122;3;2;2;-1;low;1906;Rechts;visual\obj161wine.gif;visual\obj012arrow.gif
AF0402;teilenkodiert;1;1;123;1;2;2;-1;low;1593;Rechts;visual\obj149fan.gif;visual\obj228knife.gif
AF0402;teilenkodiert;1;1;124;3;3;3;1;low;1469;Rechts;visual\obj334porcupine.gif;visual\obj094chimney.gif
AG1503;vollenkodiert;0;0;0;1;2;2;-2;low;3235;Rechts;BAUER;PFEIFE
AG1503;vollenkodiert;0;0;1;1;7;7;4;low;2014;Rechts;DOZENT;HALTUNG
AG1503;vollenkodiert;0;0;2;4;0;7;4;low;1625;Links;SUPPE;PFLASTER
AG1503;vollenkodiert;0;0;3;1;7;7;4;low;2014;Rechts;ROUTE;SCHRAUBE
AG1503;vollenkodiert;0;0;4;1;1;6;3;low;3703;Links;KITTEL;KNIE
AG1503;vollenkodiert;0;0;5;4;0;7;4;low;1093;Links;MÜTZE;MÖNCH
AG1503;vollenkodiert;0;0;6;4;3;4;1;low;3922;Links;WALL;MODE
AG1503;vollenkodiert;0;0;7;4;7;7;4;low;1656;Rechts;FOLIE;TURM
AG1503;vollenkodiert;0;0;8;1;5;2;-2;low;3265;Links;LAGER;SKIZZE
AG1503;vollenkodiert;0;0;9;1;5;5;2;low;3109;Rechts;BAUWERK;RAHMEN
AG1503;vollenkodiert;0;0;10;1;7;7;4;low;1610;Rechts;PFANNE;SALZ
AG1503;vollenkodiert;0;0;11;4;7;7;4;low;1078;Rechts;MOLEKÜL;ZUNGE
AG1503;vollenkodiert;0;0;12;1;7;7;4;low;1108;Rechts;ZWEIG;MITGLIED
AG1503;vollenkodiert;0;0;13;1;0;7;4;low;2844;Links;RESERVE;STÄTTE
AG1503;vollenkodiert;0;0;14;1;2;5;2;low;5937;Links;STATION;VORHANG
AG1503;vollenkodiert;0;0;15;4;7;7;4;low;1735;Rechts;ENTWURF;STRAUCH
AG1503;vollenkodiert;0;0;16;4;0;7;4;low;1671;Links;BEIN;FAKTOR
AG1503;vollenkodiert;0;0;17;1;4;4;1;low;7983;Rechts;NOTIZ;ZETTEL
AG1503;vollenkodiert;0;0;18;1;4;4;1;low;6312;Rechts;ARBEITER;RICHTUNG
AG1503;vollenkodiert;0;0;19;4;7;7;4;low;2108;Rechts;SCHNUR;RADIUS
AG1503;vollenkodiert;0;0;20;4;0;7;4;low;1485;Links;DRESSUR;BLEI
AG1503;vollenkodiert;0;0;21;1;7;0;-4;low;2452;Links;BIRNE;GERÄT
AG1503;vollenkodiert;0;0;22;4;0;7;4;low;1875;Links;SAMMLER;APPARAT
AG1503;vollenkodiert;0;0;23;4;7;7;4;low;2015;Rechts;BEITRAG;EXEMPLAR
AG1503;vollenkodiert;0;0;24;4;0;7;4;low;1421;Links;NASE;MANTEL
AG1503;vollenkodiert;0;0;25;1;7;7;4;low;2296;Rechts;AUSGABE;KORB
AG1503;vollenkodiert;0;0;26;1;0;7;4;low;1656;Links;RATION;MAGNET
AG1503;vollenkodiert;0;0;27;1;2;5;2;low;3421;Links;TASSE;KAMEL
AG1503;vollenkodiert;0;0;28;4;7;7;4;low;1610;Rechts;CLUB;BLOCK
AG1503;vollenkodiert;0;0;29;1;7;7;4;low;1108;Rechts;VOLUMEN;PULLOVER
AG1503;vollenkodiert;0;0;30;4;0;7;4;low;1546;Links;KNOCHEN;ARCHIV
AG1503;vollenkodiert;0;0;31;1;0;7;4;low;4467;Links;ZIMMER;IMPORT
AG1503;vollenkodiert;0;0;32;4;7;7;4;low;1687;Rechts;REGION;FAHRT
AG1503;vollenkodiert;0;0;33;1;1;6;3;low;3780;Links;WAAGE;FISCH
AG1503;vollenkodiert;0;0;34;1;5;2;-2;low;2000;Links;SYNTAX;WANNE
AG1503;vollenkodiert;0;0;35;4;7;7;4;low;2109;Rechts;HAHN;STANGE
AG1503;vollenkodiert;0;0;36;4;7;7;4;low;1187;Rechts;MINUTE;GNADE
AG1503;vollenkodiert;0;0;37;4;5;5;2;low;2296;Rechts;REST;AUSÜBUNG
AG1503;vollenkodiert;0;0;38;4;0;7;4;low;1594;Links;SCHRANK;FERNROHR
AG1503;vollenkodiert;0;0;39;4;0;7;4;low;1108;Links;UMSTAND;PASSAGE
AG1503;vollenkodiert;0;0;40;4;3;4;1;low;2547;Links;TITEL;GEMEINDE
AG1503;vollenkodiert;0;0;41;4;5;5;2;low;1983;Rechts;MONITOR;TANK
AG1503;vollenkodiert;0;0;42;4;7;7;4;low;1406;Rechts;GELÄNDE;KANAL
AG1503;vollenkodiert;0;0;43;1;3;3;-1;low;6812;Rechts;BERATUNG;BOHRER
AG1503;vollenkodiert;0;0;44;1;3;3;-1;low;5639;Rechts;LEGENDE;SEIL
AG1503;vollenkodiert;0;0;45;1;2;5;2;low;3641;Links;PHASE;HINBLICK
AG1503;vollenkodiert;0;0;46;1;4;4;1;low;5500;Rechts;KANZLER;TABELLE
AG1503;vollenkodiert;0;0;47;1;7;7;4;low;1405;Rechts;KREIDE;STAFFEL
AG1503;vollenkodiert;0;0;48;4;0;7;4;low;1780;Links;ZUCHT;KUGEL
AG1503;vollenkodiert;0;0;49;4;7;7;4;low;1406;Rechts;ONKEL;TAGUNG
AG1503;vollenkodiert;0;0;50;4;0;7;4;low;1828;Links;LATTE;RAND
AG1503;vollenkodiert;0;0;51;1;4;3;-1;low;3359;Links;NUSS;KETTE
AG1503;vollenkodiert;0;0;52;4;7;7;4;low;2953;Rechts;THEMA;SCHÜRZE
AG1503;vollenkodiert;0;0;53;1;7;7;4;low;3437;Rechts;APOTHEKE;BEISPIEL
AG1503;vollenkodiert;0;0;54;4;6;6;3;low;3764;Rechts;BÜRSTE;KUPPE
AG1503;vollenkodiert;0;0;55;4;0;7;4;low;1452;Links;BRONZE;ZONE
AG1503;vollenkodiert;0;0;56;4;0;7;4;low;1391;Links;LENKER;BEDARF
AG1503;vollenkodiert;0;0;57;4;0;7;4;low;1250;Links;PREDIGT;WEISE
AG1503;vollenkodiert;0;0;58;1;3;3;-1;low;5093;Rechts;KÄSE;DING
AG1503;vollenkodiert;0;0;59;1;3;4;1;low;3764;Links;WIRT;AUSKUNFT
AG1503;vollenkodiert;0;0;60;1;3;4;1;low;7219;Links;IMBISS;ZUSTAND
AG1503;vollenkodiert;0;0;61;1;7;7;4;low;1796;Rechts;ANLAGE;VASE
AG1503;vollenkodiert;0;0;62;1;0;7;4;low;1891;Links;ZIGARRE;FORM
AG1503;vollenkodiert;0;0;63;4;0;7;4;low;1281;Links;TISCH;VERBAND
AG1503;vollenkodiert;0;0;64;1;0;7;4;low;1233;Links;SCHAF;KIOSK
AG1503;vollenkodiert;0;0;65;4;7;7;4;low;1562;Rechts;DEUTUNG;PERIODE
AG1503;vollenkodiert;0;0;66;1;0;7;4;low;1828;Links;ABDRUCK;TRÄGER
AG1503;vollenkodiert;0;0;67;1;6;6;3;low;4843;Rechts;VIEH;REIGEN
AG1503;vollenkodiert;0;0;68;4;0;7;4;low;1500;Links;NADEL;ABRUF
AG1503;vollenkodiert;0;0;69;1;0;7;4;low;1187;Links;SACHE;AUSDRUCK
AG1503;vollenkodiert;0;0;70;4;7;7;4;low;2375;Rechts;AUTOMAT;RENTE
AG1503;vollenkodiert;0;0;71;4;7;7;4;low;1359;Rechts;KLINKE;MATERIE
AG1503;vollenkodiert;0;1;0;4;7;7;14;high;2203;Rechts;KAHN;TECHNIK
AG1503;vollenkodiert;0;1;1;1;7;7;14;high;1828;Rechts;EBBE;TUCH
AG1503;vollenkodiert;0;1;2;1;7;7;14;high;1500;Rechts;ZELT;SPIEGEL
AG1503;vollenkodiert;0;1;3;4;7;7;14;high;875;Rechts;GEBÄUDE;LAPPEN
AG1503;vollenkodiert;0;1;4;4;0;7;14;high;1671;Links;SPRUCH;DAMPFER
AG1503;vollenkodiert;0;1;5;1;3;4;1;high;3875;Links;ZIFFER;BISCHOF
AG1503;vollenkodiert;0;1;6;4;7;0;-14;high;2828;Links;EBENE;TERMIN
AG1503;vollenkodiert;0;1;7;4;7;7;14;high;1500;Rechts;SPIRALE;HANDWERK
AG1503;vollenkodiert;0;1;8;4;7;7;14;high;1953;Rechts;METHODE;SATZ
AG1503;vollenkodiert;0;1;9;4;0;7;14;high;1860;Links;KUPFER;KLAMMER
AG1503;vollenkodiert;0;1;10;1;3;3;-1;high;2171;Rechts;ABLAUF;FINGER
AG1503;vollenkodiert;0;1;11;4;2;5;5;high;2094;Links;BLATT;KASTEN
AG1503;vollenkodiert;0;1;12;1;7;7;14;high;1468;Rechts;TRUPPE;VORSTAND
AG1503;vollenkodiert;0;1;13;1;4;3;-1;high;2203;Links;KISTE;STIRN
AG1503;vollenkodiert;0;1;14;1;3;4;1;high;2766;Links;KANDIDAT;PLATTE
AG1503;vollenkodiert;0;1;15;4;5;5;5;high;6312;Rechts;STUHL;GEREDE
AG1503;vollenkodiert;0;1;16;4;0;7;14;high;2281;Links;LAUB;SPALTE
AG1503;vollenkodiert;0;1;17;1;5;5;5;high;2733;Rechts;STOFF;SEGEL
AG1503;vollenkodiert;0;1;18;4;7;7;14;high;1312;Rechts;KIES;VETTER
AG1503;vollenkodiert;0;1;19;4;0;7;14;high;2485;Links;PRODUKT;UMBAU
AG1503;vollenkodiert;0;1;20;1;5;5;5;high;3389;Rechts;DIENST;HAMMEL
AG1503;vollenkodiert;0;1;21;1;1;6;9;high;1828;Links;URHEBER;JUNGE
AG1503;vollenkodiert;0;1;22;4;2;2;-5;high;5546;Rechts;MATROSE;SACK
AG1503;vollenkodiert;0;1;23;1;0;7;14;high;1437;Links;GARDINE;WAHRUNG
AG1503;vollenkodiert;0;1;24;4;0;7;14;high;2000;Links;KRANZ;GEWERBE
AG1503;vollenkodiert;0;1;25;1;4;4;1;high;4233;Rechts;FASSUNG;SCHILD
AG1503;vollenkodiert;0;1;26;4;2;5;5;high;3921;Links;AUSWEIS;NUMMER
AG1503;vollenkodiert;0;1;27;1;7;7;14;high;1891;Rechts;ZITAT;KINN
AG1503;vollenkodiert;0;1;28;4;5;5;5;high;6562;Rechts;HERD;SITZ
AG1503;vollenkodiert;0;1;29;4;7;7;14;high;1859;Rechts;SEMINAR;GEWÄHR
AG1503;vollenkodiert;0;1;30;1;2;5;5;high;3093;Links;GESCHIRR;LEITUNG
AG1503;vollenkodiert;0;1;31;4;7;7;14;high;1233;Rechts;SEKT;VERZICHT
AG1503;vollenkodiert;0;1;32;4;7;7;14;high;1469;Rechts;SAMMLUNG;SPANGE
AG1503;vollenkodiert;0;1;33;4;7;7;14;high;1609;Rechts;KLINGEL;AMPEL
AG1503;vollenkodiert;0;1;34;4;0;7;14;high;1437;Links;KRUSTE;HINSICHT
AG1503;vollenkodiert;0;1;35;4;2;5;5;high;2219;Links;TASCHE;PATENT
AG1503;vollenkodiert;0;1;36;1;1;6;9;high;2358;Links;BETRAG;SAAL
AG1503;vollenkodiert;0;1;37;4;7;7;14;high;4312;Rechts;REGAL;BECHER
AG1503;vollenkodiert;0;1;38;4;0;7;14;high;1764;Links;BART;BEREICH
AG1503;vollenkodiert;0;1;39;1;7;7;14;high;1578;Rechts;MISCHUNG;HEFT
AG1503;vollenkodiert;0;1;40;4;7;7;14;high;1155;Rechts;EULE;FARM
AG1503;vollenkodiert;0;1;41;1;0;7;14;high;1702;Links;FREQUENZ;KLASSE
AG1503;vollenkodiert;0;1;42;1;5;5;5;high;1750;Rechts;RESULTAT;PRIESTER
AG1503;vollenkodiert;0;1;43;1;7;7;14;high;1342;Rechts;SCHUPPEN;HÖRER
AG1503;vollenkodiert;0;1;44;1;0;7;14;high;2171;Links;LAUFBAHN;SÄGE
AG1503;vollenkodiert;0;1;45;1;3;4;1;high;2421;Links;KOCHTOPF;SCHÜLER
AG1503;vollenkodiert;0;1;46;4;1;6;9;high;4703;Links;HELM;KURIER
AG1503;vollenkodiert;0;1;47;1;6;1;-9;high;2953;Links;STROM;ETIKETT
AG1503;vollenkodiert;0;1;48;1;3;3;-1;high;2546;Rechts;LEHNE;ZWECK
AG1503;vollenkodiert;0;1;49;4;5;5;5;high;3171;Rechts;MÖBEL;SENDER
AG1503;vollenkodiert;0;1;50;1;0;7;14;high;1703;Links;ROSINE;STAUB
AG1503;vollenkodiert;0;1;51;4;0;7;14;high;2500;Links;SKALA;MINIMUM
AG1503;vollenkodiert;0;1;52;1;7;7;14;high;2014;Rechts;KERAMIK;PFLAUME
AG1503;vollenkodiert;0;1;53;4;0;7;14;high;3594;Links;﻿FERSE;ANHÄNGER
AG1503;vollenkodiert;0;1;54;4;0;7;14;high;1671;Links;ZWILLING;GUSS
AG1503;vollenkodiert;0;1;55;1;3;3;-1;high;3719;Rechts;WENDUNG;SIEDLUNG
AG1503;vollenkodiert;0;1;56;4;7;7;14;high;1796;Rechts;UMGEBUNG;TATSACHE
AG1503;vollenkodiert;0;1;57;4;1;6;9;high;5937;Links;HORN;FIGUR
AG1503;vollenkodiert;0;1;58;1;4;3;-1;high;3592;Links;ZWIEBEL;SPEICHE
AG1503;vollenkodiert;0;1;59;1;5;5;5;high;3515;Rechts;SCHNITT;VERSUCH
AG1503;vollenkodiert;0;1;60;4;4;4;1;high;2750;Rechts;METER;WIEGE
AG1503;vollenkodiert;0;1;61;1;3;4;1;high;4921;Links;KRABBE;ANBAU
AG1503;vollenkodiert;0;1;62;4;0;7;14;high;1296;Links;KAMM;WINKEL
AG1503;vollenkodiert;0;1;63;1;0;7;14;high;1592;Links;KATALOG;STIFT
AG1503;vollenkodiert;0;1;64;1;0;7;14;high;1483;Links;TELLER;PEDAL
AG1503;vollenkodiert;0;1;65;1;7;7;14;high;1530;Rechts;GÖNNER;VERMERK
AG1503;vollenkodiert;0;1;66;1;0;7;14;high;1828;Links;PARTEI;DOKUMENT
AG1503;vollenkodiert;0;1;67;4;3;4;1;high;3203;Links;LÄUFER;OBJEKT
AG1503;vollenkodiert;0;1;68;1;7;7;14;high;2046;Rechts;POLIZIST;GEBIET
AG1503;vollenkodiert;0;1;69;1;3;4;1;high;2125;Links;BRETT;MITTWOCH
AG1503;vollenkodiert;0;1;70;4;7;7;14;high;1516;Rechts;MOTORRAD;DORN
AG1503;vollenkodiert;0;1;71;1;0;0;-14;high;3500;Rechts;LÖFFEL;SUBSTANZ
AG1503;vollenkodiert;0;2;0;1;6;6;3;low;4014;Rechts;PILZ;PFLICHT
AG1503;vollenkodiert;0;2;1;4;0;7;4;low;4657;Links;BEGRIFF;SYMPTOM
AG1503;vollenkodiert;0;2;2;4;7;7;4;low;1592;Rechts;SCHEMA;GALERIE
AG1503;vollenkodiert;0;2;3;1;5;2;-2;low;1796;Links;BÜRO;STAAT
AG1503;vollenkodiert;0;2;4;4;0;7;4;low;2545;Links;TASTE;ANSATZ
AG1503;vollenkodiert;0;2;5;1;2;5;2;low;3719;Links;ZEILE;AKZENT
AG1503;vollenkodiert;0;2;6;4;7;7;4;low;1547;Rechts;DOSE;ANZUG
AG1503;vollenkodiert;0;2;7;1;0;7;4;low;1890;Links;SCHEITEL;VORTRAG
AG1503;vollenkodiert;0;2;8;4;7;7;4;low;1546;Rechts;BEFUGNIS;QUITTUNG
AG1503;vollenkodiert;0;2;9;4;7;7;4;low;1546;Rechts;OBER;BRAUCH
AG1503;vollenkodiert;0;2;10;1;0;7;4;low;1562;Links;SCHINKEN;LEITER
AG1503;vollenkodiert;0;2;11;4;7;7;4;low;1733;Rechts;STAMM;KRAGEN
AG1503;vollenkodiert;0;2;12;1;2;2;-2;low;2641;Rechts;SCHIRM;ERHEBUNG
AG1503;vollenkodiert;0;2;13;4;7;7;4;low;1421;Rechts;RADIO;VERSION
AG1503;vollenkodiert;0;2;14;4;0;7;4;low;1594;Links;LAGERUNG;PFÜTZE
AG1503;vollenkodiert;0;2;15;4;7;7;4;low;1702;Rechts;AUFLAGE;STÜTZE
AG1503;vollenkodiert;0;2;16;4;0;7;4;low;1500;Links;SENDUNG;WURF
AG1503;vollenkodiert;0;2;17;1;7;7;4;low;2342;Rechts;HIRTE;PROGRAMM
AG1503;vollenkodiert;0;2;18;1;7;7;4;low;1203;Rechts;FAHNE;TAXI
AG1503;vollenkodiert;0;2;19;1;7;7;4;low;1156;Rechts;VORRECHT;HAUBE
AG1503;vollenkodiert;0;2;20;1;7;7;4;low;1062;Rechts;AKTIONÄR;DIAKONIE
AG1503;vollenkodiert;0;2;21;4;7;7;4;low;1047;Rechts;INSTANZ;ERWÄGUNG
AG1503;vollenkodiert;0;2;22;1;7;7;4;low;1359;Rechts;KLOSTER;TEXT
AG1503;vollenkodiert;0;2;23;4;0;7;4;low;2328;Links;AUFNAHME;SORTE
AG1503;vollenkodiert;0;2;24;4;7;7;4;low;2218;Rechts;FORMEL;NETZ
AG1503;vollenkodiert;0;2;25;1;0;7;4;low;2062;Links;DATUM;BEUTEL
AG1503;vollenkodiert;0;2;26;1;0;7;4;low;5952;Links;GESTEIN;FELL
AG1503;vollenkodiert;0;2;27;4;0;7;4;low;1015;Links;PELZ;ROHR
AG1503;vollenkodiert;0;2;28;1;5;5;2;low;4125;Rechts;STEIN;SAUM
AG1503;vollenkodiert;0;2;29;4;1;6;3;low;4032;Links;BETRIEB;KANNE
AG1503;vollenkodiert;0;2;30;4;0;7;4;low;1125;Links;PHYSIK;MERKMAL
AG1503;vollenkodiert;0;2;31;1;7;7;4;low;1531;Rechts;AKTIE;GÜRTEL
AG1503;vollenkodiert;0;2;32;4;0;7;4;low;1922;Links;VISUM;ZAUN
AG1503;vollenkodiert;0;2;33;4;0;7;4;low;1312;Links;AMATEUR;EFFEKT
AG1503;vollenkodiert;0;2;34;1;4;3;-1;low;4437;Links;DIENER;MITTAG
AG1503;vollenkodiert;0;2;35;4;2;5;2;low;2516;Links;VERB;SEIFE
AG1503;vollenkodiert;0;2;36;1;7;0;-4;low;2265;Links;MUSTER;SERIE
AG1503;vollenkodiert;0;2;37;1;3;4;1;low;4469;Links;TRANSFER;HÄNDLER
AG1503;vollenkodiert;0;2;38;1;0;7;4;low;1657;Links;MODELL;ANKER
AG1503;vollenkodiert;0;2;39;4;0;7;4;low;2577;Links;PALETTE;ETAGE
AG1503;vollenkodiert;0;2;40;4;4;4;1;low;3110;Rechts;PHRASE;SCHLAMM
AG1503;vollenkodiert;0;2;41;1;1;6;3;low;3608;Links;TROPFEN;WERBUNG
AG1503;vollenkodiert;0;2;42;4;7;7;4;low;2608;Rechts;ZEIGER;EISEN
AG1503;vollenkodiert;0;2;43;1;7;7;4;low;1266;Rechts;SAAT;FÜRST
AG1503;vollenkodiert;0;2;44;1;5;5;2;low;3890;Rechts;QUOTE;RINDE
AG1503;vollenkodiert;0;2;45;1;4;3;-1;low;3702;Links;PUNKT;KAMMER
AG1503;vollenkodiert;0;2;46;1;3;4;1;low;3328;Links;PATER;HAFER
AG1503;vollenkodiert;0;2;47;4;5;5;2;low;4343;Rechts;FLÖTE;FUNKTION
AG1503;vollenkodiert;0;2;48;1;6;6;3;low;3905;Rechts;SPATEN;KELLER
AG1503;vollenkodiert;0;2;49;4;4;3;-1;low;1733;Links;ZENTRUM;LINIE
AG1503;vollenkodiert;0;2;50;4;4;4;1;low;2546;Rechts;LAUF;BERG
AG1503;vollenkodiert;0;2;51;1;4;3;-1;low;1858;Links;SCHLEIER;WÄHRUNG
AG1503;vollenkodiert;0;2;52;1;0;7;4;low;3812;Links;BÜCHSE;STRUMPF
AG1503;vollenkodiert;0;2;53;1;7;7;4;low;1891;Rechts;TRAKTOR;KONGRESS
AG1503;vollenkodiert;0;2;54;1;5;5;2;low;3546;Rechts;SEKTOR;SCHALTER
AG1503;vollenkodiert;0;2;55;1;0;7;4;low;1546;Links;GRAPHIK;STEMPEL
AG1503;vollenkodiert;0;2;56;4;0;7;4;low;2094;Links;BESTAND;FÜGUNG
AG1503;vollenkodiert;0;2;57;4;7;7;4;low;2092;Rechts;TRANSIT;HÜTER
AG1503;vollenkodiert;0;2;58;1;0;7;4;low;1531;Links;RICHTER;NONNE
AG1503;vollenkodiert;0;2;59;1;7;7;4;low;1500;Rechts;UNSINN;WARTUNG
AG1503;vollenkodiert;0;2;60;1;2;5;2;low;3422;Links;VERLAUF;DACH
AG1503;vollenkodiert;0;2;61;4;7;7;4;low;5656;Rechts;RUDER;GANS
AG1503;vollenkodiert;0;2;62;1;7;7;4;low;2718;Rechts;TAKT;SCHRIFT
AG1503;vollenkodiert;0;2;63;4;7;7;4;low;1359;Rechts;FLÄCHE;HERR
AG1503;vollenkodiert;0;2;64;4;0;7;4;low;1532;Links;RUDEL;SCHMIED
AG1503;vollenkodiert;0;2;65;4;0;7;4;low;3235;Links;SYSTEM;LUNGE
AG1503;vollenkodiert;0;2;66;4;0;7;4;low;1875;Links;HOSE;KORN
AG1503;vollenkodiert;0;2;67;4;7;7;4;low;2344;Rechts;ZEUG;FORMAT
AG1503;vollenkodiert;0;2;68;4;3;4;1;low;2984;Links;FLASCHE;WORT
AG1503;vollenkodiert;0;2;69;1;0;0;-4;low;4546;Rechts;STRICH;BESCHEID
AG1503;vollenkodiert;0;2;70;4;7;7;4;low;2062;Rechts;TROMPETE;BUDE
AG1503;vollenkodiert;0;2;71;1;7;7;4;low;1108;Rechts;KREIS;LAGE
AG1503;vollenkodiert;0;3;0;4;0;7;14;high;2344;Links;PFEIL;JOGHURT
AG1503;vollenkodiert;0;3;1;4;7;7;14;high;1578;Rechts;AUSGANG;REITER
AG1503;vollenkodiert;0;3;2;1;2;5;5;high;2718;Links;KURS;BENZIN
AG1503;vollenkodiert;0;3;3;4;0;7;14;high;1437;Links;BLUSE;GEMISCH
AG1503;vollenkodiert;0;3;4;4;0;7;14;high;1657;Links;SCHÖPFER;LEUCHTE
AG1503;vollenkodiert;0;3;5;1;7;7;14;high;1250;Rechts;RAUM;MÜHLE
AG1503;vollenkodiert;0;3;6;1;1;6;9;high;3046;Links;STELLE;VERBUND
AG1503;vollenkodiert;0;3;7;1;0;7;14;high;1437;Links;SCHWAMM;ARTIKEL
AG1503;vollenkodiert;0;3;8;1;7;7;14;high;1921;Rechts;ZUSATZ;ÜBUNG
AG1503;vollenkodiert;0;3;9;1;7;7;14;high;1219;Rechts;KOPPEL;BUND
AG1503;vollenkodiert;0;3;10;4;7;7;14;high;2031;Rechts;HOLZ;PUPPE
AG1503;vollenkodiert;0;3;11;4;0;7;14;high;1390;Links;MALER;KARTE
AG1503;vollenkodiert;0;3;12;1;7;7;14;high;1609;Rechts;KASSETTE;BEIHILFE
AG1503;vollenkodiert;0;3;13;1;2;5;5;high;3344;Links;SCHICHT;HÖHLE
AG1503;vollenkodiert;0;3;14;4;2;5;5;high;1921;Links;HÜGEL;WAPPEN
AG1503;vollenkodiert;0;3;15;1;4;3;-1;high;3000;Links;TRAINER;TINTE
AG1503;vollenkodiert;0;3;16;1;7;7;14;high;2327;Rechts;INDEX;SYMBOL
AG1503;vollenkodiert;0;3;17;1;5;5;5;high;2343;Rechts;TREPPE;MEHL
AG1503;vollenkodiert;0;3;18;1;7;7;14;high;2312;Rechts;SPRECHER;MATERIAL
AG1503;vollenkodiert;0;3;19;1;7;7;14;high;1187;Rechts;KARTON;MARKE
AG1503;vollenkodiert;0;3;20;4;7;7;14;high;1843;Rechts;PFARRER;KAPSEL
AG1503;vollenkodiert;0;3;21;4;7;7;14;high;1812;Rechts;SCHÄDEL;VERLAG
AG1503;vollenkodiert;0;3;22;4;7;7;14;high;734;Rechts;EPOCHE;AUSSCHAU
AG1503;vollenkodiert;0;3;23;1;0;7;14;high;2125;Links;HOCHHAUS;HÜRDE
AG1503;vollenkodiert;0;3;24;4;0;7;14;high;1375;Links;RÜSTUNG;STREIFEN
AG1503;vollenkodiert;0;3;25;1;5;5;5;high;2828;Rechts;ANLASS;DORF
AG1503;vollenkodiert;0;3;26;1;4;3;-1;high;4437;Links;LEDER;BÜGEL
AG1503;vollenkodiert;0;3;27;1;6;6;9;high;1171;Rechts;VENTIL;ENTE
AG1503;vollenkodiert;0;3;28;1;7;7;14;high;1358;Rechts;KOSMETIK;BAHN
AG1503;vollenkodiert;0;3;29;4;0;7;14;high;1827;Links;HÜTTE;FASS
AG1503;vollenkodiert;0;3;30;4;4;4;1;high;3437;Rechts;LÄNGE;WARE
AG1503;vollenkodiert;0;3;31;1;7;7;14;high;1453;Rechts;EICHE;BESEN
AG1503;vollenkodiert;0;3;32;1;0;7;14;high;2468;Links;KABEL;RAST
AG1503;vollenkodiert;0;3;33;4;0;7;14;high;3671;Links;WEISUNG;KNOPF
AG1503;vollenkodiert;0;3;34;1;0;7;14;high;1405;Links;BAUCH;FAHRER
AG1503;vollenkodiert;0;3;35;4;7;7;14;high;1781;Rechts;TÜTE;SENKUNG
AG1503;vollenkodiert;0;3;36;4;0;7;14;high;1671;Links;VORTAG;HÄLFTE
AG1503;vollenkodiert;0;3;37;4;0;7;14;high;1421;Links;SEKRETÄR;LADEN
AG1503;vollenkodiert;0;3;38;1;0;7;14;high;2171;Links;GARDE;AUSNAHME
AG1503;vollenkodiert;0;3;39;4;7;7;14;high;2250;Rechts;ANGEL;WANDLUNG
AG1503;vollenkodiert;0;3;40;1;7;0;-14;high;2062;Links;TOPF;BERICHT
AG1503;vollenkodiert;0;3;41;1;4;4;1;high;3921;Rechts;VORNAME;NIERE
AG1503;vollenkodiert;0;3;42;1;7;0;-14;high;2187;Links;SCHATTEN;NUTZUNG
AG1503;vollenkodiert;0;3;43;1;7;7;14;high;1969;Rechts;DAMM;HEBEL
AG1503;vollenkodiert;0;3;44;4;2;5;5;high;2639;Links;KRIPPE;WURZEL
AG1503;vollenkodiert;0;3;45;1;1;6;9;high;1937;Links;LUPE;FOSSIL
AG1503;vollenkodiert;0;3;46;1;0;7;14;high;1406;Links;MAPPE;KLIMA
AG1503;vollenkodiert;0;3;47;4;7;7;14;high;2078;Rechts;THEORIE;SZENE
AG1503;vollenkodiert;0;3;48;4;7;7;14;high;1437;Rechts;FLEISCH;WADE
AG1503;vollenkodiert;0;3;49;4;7;7;14;high;2467;Rechts;FAHRZEUG;STUDIO
AG1503;vollenkodiert;0;3;50;1;4;4;1;high;2453;Rechts;GABEL;PARKETT
AG1503;vollenkodiert;0;3;51;1;7;7;14;high;1296;Rechts;KOHL;TAFEL
AG1503;vollenkodiert;0;3;52;4;3;3;-1;high;2625;Rechts;DRAHT;STÜCK
AG1503;vollenkodiert;0;3;53;4;7;7;14;high;1562;Rechts;ADRESSE;GRAMM
AG1503;vollenkodiert;0;3;54;4;7;7;14;high;905;Rechts;MITTE;BRILLE
AG1503;vollenkodiert;0;3;55;4;1;6;9;high;2046;Links;KERN;BUTTER
AG1503;vollenkodiert;0;3;56;4;7;7;14;high;2140;Rechts;SIEGEL;BUSCH
AG1503;vollenkodiert;0;3;57;1;6;1;-9;high;3375;Links;SOHLE;ERSATZ
AG1503;vollenkodiert;0;3;58;1;7;7;14;high;2140;Rechts;EINGABE;SCHUH
AG1503;vollenkodiert;0;3;59;4;4;4;1;high;3094;Rechts;BLECH;KÄFER
AG1503;vollenkodiert;0;3;60;1;2;5;5;high;3921;Links;TEICH;PLAKAT
AG1503;vollenkodiert;0;3;61;4;0;7;14;high;2015;Links;ANSCHEIN;PRÄDIKAT
AG1503;vollenkodiert;0;3;62;1;7;7;14;high;1984;Rechts;GREMIUM;TEPPICH
AG1503;vollenkodiert;0;3;63;4;0;7;14;high;1531;Links;FISCHER;MAST
AG1503;vollenkodiert;0;3;64;4;7;7;14;high;3358;Rechts;WINTER;BOHNE
AG1503;vollenkodiert;0;3;65;4;0;7;14;high;1719;Links;HALLE;GESCHÄFT
AG1503;vollenkodiert;0;3;66;1;4;3;-1;high;2687;Links;SUCHE;LACK
AG1503;vollenkodiert;0;3;67;4;3;4;1;high;2389;Links;DAMPF;TRIKOT
AG1503;vollenkodiert;0;3;68;1;2;5;5;high;2391;Links;SATTEL;NEFFE
AG1503;vollenkodiert;0;3;69;4;0;7;14;high;1296;Links;STROH;KRAUT
AG1503;vollenkodiert;0;3;70;4;7;7;14;high;1812;Rechts;WAND;UMFRAGE
AG1503;vollenkodiert;0;3;71;4;0;7;14;high;1671;Links;NUTZEN;QUADRAT
AG1503;vollenkodiert;1;0;0;3;7;7;4;low;2219;Rechts;visual\obj017baby.gif;visual\obj289ostrich.gif
AG1503;vollenkodiert;1;0;1;1;5;5;2;low;5844;Rechts;visual\obj389sheep.gif;visual\obj257map.gif
AG1503;vollenkodiert;1;0;2;1;3;4;1;low;2516;Links;visual\obj451thimble.gif;visual\obj366rose.gif
AG1503;vollenkodiert;1;0;3;3;6;6;3;low;1875;Rechts;visual\obj025balloon.gif;visual\obj011arm.gif
AG1503;vollenkodiert;1;0;4;1;4;4;1;low;2421;Rechts;visual\obj314piano.gif;visual\obj325pitchfork.gif
AG1503;vollenkodiert;1;0;5;1;3;3;-1;low;3265;Rechts;visual\obj047wood.gif;visual\obj180glass.gif
AG1503;vollenkodiert;1;0;6;1;0;7;4;low;2155;Links;visual\obj475turkey.gif;visual\obj275mushroom.gif
AG1503;vollenkodiert;1;0;7;3;5;5;2;low;2530;Rechts;visual\obj242lightbulb.gif;visual\obj501whale.gif
AG1503;vollenkodiert;1;0;8;3;7;7;4;low;1780;Rechts;visual\obj273mouse.gif;visual\obj091cherry.gif
AG1503;vollenkodiert;1;0;9;1;7;7;4;low;1078;Rechts;visual\obj403sled.gif;visual\obj470tripod.gif
AG1503;vollenkodiert;1;0;10;3;0;7;4;low;1782;Links;visual\obj404slide.gif;visual\obj132door.gif
AG1503;vollenkodiert;1;0;11;1;3;4;1;low;3734;Links;visual\obj243lighthouse.gif;visual\obj488wagon.gif
AG1503;vollenkodiert;1;0;12;1;4;4;1;low;2734;Rechts;visual\obj167football.gif;visual\obj080hat.gif
AG1503;vollenkodiert;1;0;13;1;0;7;4;low;1969;Links;visual\obj157fish.gif;visual\obj427strawberry.gif
AG1503;vollenkodiert;1;0;14;3;3;3;-1;low;2656;Rechts;visual\obj034bear.gif;visual\obj468trashcan.gif
AG1503;vollenkodiert;1;0;15;1;3;3;-1;low;2250;Rechts;visual\obj385seal.gif;visual\obj215icecreamcone.gif
AG1503;vollenkodiert;1;0;16;1;7;7;4;low;2312;Rechts;visual\obj513witch.gif;visual\obj186grapes.gif
AG1503;vollenkodiert;1;0;17;1;0;7;4;low;2203;Links;visual\obj426stove.gif;visual\obj005anchor.gif
AG1503;vollenkodiert;1;0;18;1;3;3;-1;low;3937;Rechts;visual\obj165fly.gif;visual\obj381scorpion.gif
AG1503;vollenkodiert;1;0;19;1;3;3;-1;low;1906;Rechts;visual\obj481unicycle.gif;visual\obj073camera.gif
AG1503;vollenkodiert;1;0;20;3;0;7;4;low;1483;Links;visual\obj178giraffe.gif;visual\obj117crown.gif
AG1503;vollenkodiert;1;0;21;3;3;3;-1;low;2842;Rechts;visual\obj164flute.gif;visual\obj386seesaw.gif
AG1503;vollenkodiert;1;0;22;3;7;7;4;low;2000;Rechts;visual\obj172funnel.gif;visual\obj277nail.gif
AG1503;vollenkodiert;1;0;23;3;7;7;4;low;1250;Rechts;visual\obj290owl.gif;visual\obj130dolphin.gif
AG1503;vollenkodiert;1;0;24;3;0;7;4;low;1953;Links;visual\obj415spatula.gif;visual\obj480unicorn.gif
AG1503;vollenkodiert;1;0;25;1;4;4;1;low;1703;Rechts;visual\obj118block.gif;visual\obj329plug.gif
AG1503;vollenkodiert;1;0;26;3;3;4;1;low;2235;Links;visual\obj418spoon.gif;visual\obj095church.gif
AG1503;vollenkodiert;1;0;27;3;0;7;4;low;1796;Links;visual\obj088chain.gif;visual\obj466stoplight.gif
AG1503;vollenkodiert;1;0;28;3;4;4;1;low;2500;Rechts;visual\obj281nest.gif;visual\obj315picture.gif
AG1503;vollenkodiert;1;0;29;3;7;7;4;low;1327;Rechts;visual\obj015asparagus.gif;visual\obj279necklace.gif
AG1503;vollenkodiert;1;0;30;3;0;7;4;low;1796;Links;visual\obj259match.gif;visual\obj232ladle.gif
AG1503;vollenkodiert;1;0;31;1;0;7;4;low;1531;Links;visual\obj071cake.gif;visual\obj268moose.gif
AG1503;vollenkodiert;1;0;32;3;3;3;-1;low;5109;Rechts;visual\obj311pencil.gif;visual\obj081car.gif
AG1503;vollenkodiert;1;0;33;1;0;7;4;low;2280;Links;visual\obj168fork.gif;visual\obj417thread.gif
AG1503;vollenkodiert;1;0;34;3;0;7;4;low;2297;Links;visual\obj434swing.gif;visual\obj333popsicle.gif
AG1503;vollenkodiert;1;0;35;3;0;7;4;low;1530;Links;visual\obj013artichoke.gif;visual\obj115crib.gif
AG1503;vollenkodiert;1;0;36;3;4;4;1;low;2155;Rechts;visual\obj181glasses.gif;visual\obj065bus.gif
AG1503;vollenkodiert;1;0;37;3;4;3;-1;low;3717;Links;visual\obj362rollingpin.gif;visual\obj142ear.gif
AG1503;vollenkodiert;1;0;38;3;0;7;4;low;1546;Links;visual\obj024ball.gif;visual\obj064brush.gif
AG1503;vollenkodiert;1;0;39;1;3;4;1;low;9094;Links;visual\obj340purse.gif;visual\obj512wing.gif
AG1503;vollenkodiert;1;0;40;3;7;7;4;low;1781;Rechts;visual\obj491wallet.gif;visual\obj376saw.gif
AG1503;vollenkodiert;1;0;41;3;7;7;4;low;1015;Rechts;visual\obj021badge.gif;visual\obj492walnut.gif
AG1503;vollenkodiert;1;0;42;3;3;4;1;low;2421;Links;visual\obj135dress.gif;visual\obj464railroadtracks.gif
AG1503;vollenkodiert;1;0;43;3;4;4;1;low;2094;Rechts;visual\obj141eagle.gif;visual\obj224kangaroo.gif
AG1503;vollenkodiert;1;0;44;1;4;4;1;low;2766;Rechts;visual\obj249lizard.gif;visual\obj221jar.gif
AG1503;vollenkodiert;1;0;45;1;4;4;1;low;2344;Rechts;visual\obj407smoke.gif;visual\obj406slipper.gif
AG1503;vollenkodiert;1;0;46;3;0;7;4;low;1796;Links;visual\obj301parachute.gif;visual\obj395shovel.gif
AG1503;vollenkodiert;1;0;47;1;7;7;4;low;1608;Rechts;visual\obj106comb.gif;visual\obj295palmtree.gif
AG1503;vollenkodiert;1;0;48;1;7;7;4;low;2358;Rechts;visual\obj261microphone.gif;visual\obj487waffle.gif
AG1503;vollenkodiert;1;0;49;1;2;2;-2;low;3421;Rechts;visual\obj032bat.gif;visual\obj089chair.gif
AG1503;vollenkodiert;1;0;50;1;1;6;3;low;2593;Links;visual\obj209hoof.gif;visual\obj305peacock.gif
AG1503;vollenkodiert;1;0;51;1;3;4;1;low;2000;Links;visual\obj187grasshopper.gif;visual\obj030barrel.gif
AG1503;vollenkodiert;1;0;52;1;4;3;-1;low;2141;Links;visual\obj043bicycle.gif;visual\obj179girl.gif
AG1503;vollenkodiert;1;0;53;1;0;7;4;low;1733;Links;visual\obj211horse.gif;visual\obj105pillar.gif
AG1503;vollenkodiert;1;0;54;3;7;7;4;low;1764;Rechts;visual\obj127doctor.gif;visual\obj509windmill.gif
AG1503;vollenkodiert;1;0;55;1;1;6;3;low;1937;Links;visual\obj267moon.gif;visual\obj184goat.gif
AG1503;vollenkodiert;1;0;56;1;3;4;1;low;1750;Links;visual\obj053bottle.gif;visual\obj298pants.gif
AG1503;vollenkodiert;1;0;57;1;7;7;4;low;1717;Rechts;visual\obj326pizza.gif;visual\obj461toothbrush.gif
AG1503;vollenkodiert;1;0;58;3;7;7;4;low;2046;Rechts;visual\obj128dog.gif;visual\obj392shirt.gif
AG1503;vollenkodiert;1;0;59;1;7;7;4;low;1141;Rechts;visual\obj457toe.gif;visual\obj041belt.gif
AG1503;vollenkodiert;1;0;60;3;3;4;1;low;2062;Links;visual\obj171frog.gif;visual\obj498watermelon.gif
AG1503;vollenkodiert;1;0;61;3;0;7;4;low;1312;Links;visual\obj519zebra.gif;visual\obj200hay.gif
AG1503;vollenkodiert;1;0;62;1;2;2;-2;low;1735;Rechts;visual\obj213house.gif;visual\obj473trumpet.gif
AG1503;vollenkodiert;1;0;63;3;3;3;-1;low;2016;Rechts;visual\obj140dustpan.gif;visual\obj374salt.gif
AG1503;vollenkodiert;1;0;64;1;3;4;1;low;2828;Links;visual\obj153finger.gif;visual\obj055bow.gif
AG1503;vollenkodiert;1;0;65;1;4;3;-1;low;3391;Links;visual\obj356road.gif;visual\obj443teepee.gif
AG1503;vollenkodiert;1;0;66;3;7;7;4;low;1671;Rechts;visual\obj042bench.gif;visual\obj372sailboat.gif
AG1503;vollenkodiert;1;0;67;3;7;7;4;low;1062;Rechts;visual\obj412couch.gif;visual\obj380scissors.gif
AG1503;vollenkodiert;1;0;68;3;3;3;-1;low;2328;Rechts;visual\obj085castle.gif;visual\obj493walrus.gif
AG1503;vollenkodiert;1;0;69;1;3;4;1;low;1796;Links;visual\obj306peanut.gif;visual\obj517wrench.gif
AG1503;vollenkodiert;1;0;70;3;1;6;3;low;2641;Links;visual\obj479umbrella.gif;visual\obj062bridge.gif
AG1503;vollenkodiert;1;0;71;1;0;7;4;low;2046;Links;visual\obj494closet.gif;visual\obj230knot.gif
AG1503;vollenkodiert;1;0;72;3;4;4;1;low;3530;Rechts;visual\obj156firetruck.gif;visual\obj000x.gif
AG1503;vollenkodiert;1;0;73;3;0;7;4;low;1860;Links;visual\obj061bride.gif;visual\obj319pillow.gif
AG1503;vollenkodiert;1;0;74;1;5;5;2;low;3187;Rechts;visual\obj292bucket.gif;visual\obj391boat.gif
AG1503;vollenkodiert;1;0;75;3;4;3;-1;low;4421;Links;visual\obj441teapot.gif;visual\obj324pitcher.gif
AG1503;vollenkodiert;1;0;76;1;0;7;4;low;3032;Links;visual\obj478typewriter.gif;visual\obj323pirate.gif
AG1503;vollenkodiert;1;0;77;1;7;7;4;low;1483;Rechts;visual\obj316pig.gif;visual\obj318piggybank.gif
AG1503;vollenkodiert;1;0;78;1;2;2;-2;low;5155;Rechts;visual\obj063broom.gif;visual\obj452thumb.gif
AG1503;vollenkodiert;1;0;79;3;7;7;4;low;1766;Rechts;visual\obj331pool.gif;visual\obj227kite.gif
AG1503;vollenkodiert;1;0;80;3;0;7;4;low;1625;Links;visual\obj283nose.gif;visual\obj173trash.gif
AG1503;vollenkodiert;1;0;81;1;0;7;4;low;1280;Links;visual\obj265priest.gif;visual\obj183glove.gif
AG1503;vollenkodiert;1;0;82;3;0;7;4;low;1858;Links;visual\obj317bird.gif;visual\obj477tweezers.gif
AG1503;vollenkodiert;1;0;83;3;0;7;4;low;1312;Links;visual\obj308peas.gif;visual\obj028banjo.gif
AG1503;vollenkodiert;1;0;84;1;0;7;4;low;983;Links;visual\obj442tear.gif;visual\obj505wheelchair.gif
AG1503;vollenkodiert;1;0;85;1;4;4;1;low;2437;Rechts;visual\obj483vase.gif;visual\obj059bra.gif
AG1503;vollenkodiert;1;0;86;1;3;4;1;low;1671;Links;visual\obj288orange.gif;visual\obj239leopard.gif
AG1503;vollenkodiert;1;0;87;1;3;3;-1;low;1546;Rechts;visual\obj363roof.gif;visual\obj045bird.gif
AG1503;vollenkodiert;1;0;88;3;5;5;2;low;1577;Rechts;visual\obj093chicken.gif;visual\obj484vest.gif
AG1503;vollenkodiert;1;0;89;3;6;6;3;low;2030;Rechts;visual\obj455tire.gif;visual\obj303paw.gif
AG1503;vollenkodiert;1;0;90;3;4;4;1;low;1828;Rechts;visual\obj110corn.gif;visual\obj244lightning.gif
AG1503;vollenkodiert;1;0;91;1;3;4;1;low;3984;Links;visual\obj094chimney.gif;visual\obj361rollerskate.gif
AG1503;vollenkodiert;1;0;92;1;0;7;4;low;2358;Links;visual\obj035beard.gif;visual\obj338priest.gif
AG1503;vollenkodiert;1;0;93;3;2;5;2;low;2391;Links;visual\obj169fountain.gif;visual\obj299paper.gif
AG1503;vollenkodiert;1;0;94;3;0;7;4;low;1453;Links;visual\obj116cross.gif;visual\obj375sandwich.gif
AG1503;vollenkodiert;1;0;95;1;0;7;4;low;1219;Links;visual\obj444teeth.gif;visual\obj152fence.gif
AG1503;vollenkodiert;1;0;96;3;4;3;-1;low;2171;Links;visual\obj079canopener.gif;visual\obj378scale.gif
AG1503;vollenkodiert;1;0;97;3;0;7;4;low;1578;Links;visual\obj503wheel.gif;visual\obj010fishtank.gif
AG1503;vollenkodiert;1;0;98;3;7;7;4;low;1343;Rechts;visual\obj420stairs.gif;visual\obj175fence.gif
AG1503;vollenkodiert;1;0;99;1;7;7;4;low;1421;Rechts;visual\obj112cowboy.gif;visual\obj252lock.gif
AG1503;vollenkodiert;1;0;100;1;4;3;-1;low;2032;Links;visual\obj037bed.gif;visual\obj382screw.gif
AG1503;vollenkodiert;1;0;101;3;0;7;4;low;1625;Links;visual\obj495washingmachine.gif;visual\obj453tie.gif
AG1503;vollenkodiert;1;0;102;1;2;5;2;low;1797;Links;visual\obj003airplane.gif;visual\obj031basket.gif
AG1503;vollenkodiert;1;0;103;1;4;4;1;low;2921;Rechts;visual\obj489waiter.gif;visual\obj367rug.gif
AG1503;vollenkodiert;1;0;104;1;4;4;1;low;2407;Rechts;visual\obj111cow.gif;visual\obj049bomb.gif
AG1503;vollenkodiert;1;0;105;3;3;4;1;low;3389;Links;visual\obj069cactus.gif;visual\obj188guitar.gif
AG1503;vollenkodiert;1;0;106;1;7;7;4;low;1733;Rechts;visual\obj413soldier.gif;visual\obj274mousetrap.gif
AG1503;vollenkodiert;1;0;107;3;5;2;-2;low;3812;Links;visual\obj459tomato.gif;visual\obj194hammock.gif
AG1503;vollenkodiert;1;0;108;3;4;4;1;low;3016;Rechts;visual\obj349rake.gif;visual\obj398skateboard.gif
AG1503;vollenkodiert;1;0;109;3;7;7;4;low;1296;Rechts;visual\obj210hook.gif;visual\obj416spider.gif
AG1503;vollenkodiert;1;0;110;3;0;7;4;low;1702;Links;visual\obj075candle.gif;visual\obj422steeringwheel.gif
AG1503;vollenkodiert;1;0;111;1;0;0;-4;low;1594;Rechts;visual\obj462top.gif;visual\obj377saxophone.gif
AG1503;vollenkodiert;1;0;112;3;0;7;4;low;1530;Links;visual\obj405slingshot.gif;visual\obj202heel.gif
AG1503;vollenkodiert;1;0;113;1;0;7;4;low;1578;Links;visual\obj448tennisracket.gif;visual\obj009apple.gif
AG1503;vollenkodiert;1;0;114;3;2;5;2;low;2640;Links;visual\obj067butterfly.gif;visual\obj514wolf.gif
AG1503;vollenkodiert;1;0;115;3;5;5;2;low;3015;Rechts;visual\obj454tiger.gif;visual\obj502wheat.gif
AG1503;vollenkodiert;1;0;116;1;7;7;4;low;2280;Rechts;visual\obj393shoe.gif;visual\obj109corkscrew.gif
AG1503;vollenkodiert;1;0;117;1;4;4;1;low;1859;Rechts;visual\obj390shell.gif;visual\obj402skunk.gif
AG1503;vollenkodiert;1;0;118;1;7;7;4;low;1391;Rechts;visual\obj373sailor.gif;visual\obj166foot.gif
AG1503;vollenkodiert;1;0;119;1;0;7;4;low;1781;Links;visual\obj343rabbit.gif;visual\obj253log.gif
AG1503;vollenkodiert;1;0;120;3;2;5;2;low;4233;Links;visual\obj485violin.gif;visual\obj431sun.gif
AG1503;vollenkodiert;1;0;121;1;3;4;1;low;3875;Links;visual\obj313penguin.gif;visual\obj345radio.gif
AG1503;vollenkodiert;1;0;122;3;7;7;4;low;1796;Rechts;visual\obj486volcano.gif;visual\obj269mop.gif
AG1503;vollenkodiert;1;0;123;1;5;2;-2;low;1921;Links;visual\obj161wine.gif;visual\obj446telescope.gif
AG1503;vollenkodiert;1;1;0;3;4;3;-1;low;2781;Links;visual\obj321pinecone.gif;visual\obj056box.gif
AG1503;vollenkodiert;1;1;1;3;7;7;4;low;1921;Rechts;visual\obj255mailbox.gif;visual\obj198harp.gif
AG1503;vollenkodiert;1;1;2;1;4;3;-1;low;1937;Links;visual\obj058branch.gif;visual\obj507whistle.gif
AG1503;vollenkodiert;1;1;3;1;7;7;4;low;1594;Rechts;visual\obj066butter.gif;visual\obj437table.gif
AG1503;vollenkodiert;1;1;4;3;1;6;3;low;2516;Links;visual\obj014ashtray.gif;visual\obj190hair.gif
AG1503;vollenkodiert;1;1;5;3;4;4;1;low;1952;Rechts;visual\obj233ladybug.gif;visual\obj327plate.gif
AG1503;vollenkodiert;1;1;6;1;4;4;1;low;1592;Rechts;visual\obj228knife.gif;visual\obj174gas.gif
AG1503;vollenkodiert;1;1;7;1;5;5;2;low;2250;Rechts;visual\obj046blimp.gif;visual\obj098clamp.gif
AG1503;vollenkodiert;1;1;8;1;2;2;-2;low;2062;Rechts;visual\obj214firehydrant.gif;visual\obj254magnet.gif
AG1503;vollenkodiert;1;1;9;3;0;7;4;low;1358;Links;visual\obj084tape.gif;visual\obj220jacket.gif
AG1503;vollenkodiert;1;1;10;1;7;7;4;low;1250;Rechts;visual\obj272mountain.gif;visual\obj070cage.gif
AG1503;vollenkodiert;1;1;11;1;0;7;4;low;1391;Links;visual\obj060bread.gif;visual\obj476turtle.gif
AG1503;vollenkodiert;1;1;12;3;0;7;4;low;1094;Links;visual\obj023balcony.gif;visual\obj394shoulder.gif
AG1503;vollenkodiert;1;1;13;3;0;7;4;low;1141;Links;visual\obj101cloud.gif;visual\obj124desk.gif
AG1503;vollenkodiert;1;1;14;3;0;7;4;low;1030;Links;visual\obj433sweater.gif;visual\obj222puzzle.gif
AG1503;vollenkodiert;1;1;15;1;0;7;4;low;953;Links;visual\obj146envelope.gif;visual\obj436needle.gif
AG1503;vollenkodiert;1;1;16;1;4;3;-1;low;2171;Links;visual\obj408snail.gif;visual\obj310pen.gif
AG1503;vollenkodiert;1;1;17;3;2;2;-2;low;2592;Rechts;visual\obj369saddle.gif;visual\obj278neck.gif
AG1503;vollenkodiert;1;1;18;3;7;7;4;low;1562;Rechts;visual\obj072camel.gif;visual\obj000star.gif
AG1503;vollenkodiert;1;1;19;3;7;7;4;low;2062;Rechts;visual\obj099clock.gif;visual\obj350razor.gif
AG1503;vollenkodiert;1;1;20;3;7;7;4;low;766;Rechts;visual\obj341pyramid.gif;visual\obj197hanger.gif
AG1503;vollenkodiert;1;1;21;3;7;7;4;low;1875;Rechts;visual\obj012arrow.gif;visual\obj438tail.gif
AG1503;vollenkodiert;1;1;22;3;0;7;4;low;1657;Links;visual\obj226king.gif;visual\obj510window.gif
AG1503;vollenkodiert;1;1;23;3;0;7;4;low;1312;Links;visual\obj212hose.gif;visual\obj182globe.gif
AG1503;vollenkodiert;1;1;24;1;3;3;-1;low;3687;Rechts;visual\obj270mosquito.gif;visual\obj432swan.gif
AG1503;vollenkodiert;1;1;25;3;4;4;1;low;1608;Rechts;visual\obj204helmet.gif;visual\obj429submarine.gif
AG1503;vollenkodiert;1;1;26;1;0;7;4;low;1609;Links;visual\obj397sink.gif;visual\obj149fan.gif
AG1503;vollenkodiert;1;1;27;1;4;3;-1;low;4655;Links;visual\obj384seahorse.gif;visual\obj357robot.gif
AG1503;vollenkodiert;1;1;28;1;7;7;4;low;1234;Rechts;visual\obj463towel.gif;visual\obj456toaster.gif
AG1503;vollenkodiert;1;1;29;3;2;5;2;low;2797;Links;visual\obj199hat.gif;visual\obj163flower.gif
AG1503;vollenkodiert;1;1;30;3;2;5;2;low;2546;Links;visual\obj150faucet.gif;visual\obj342queen.gif
AG1503;vollenkodiert;1;1;31;3;0;7;4;low;1109;Links;visual\obj097city.gif;visual\obj293paintbrush.gif
AG1503;vollenkodiert;1;1;32;1;7;0;-4;low;2344;Links;visual\obj185gorilla.gif;visual\obj337present.gif
AG1503;vollenkodiert;1;1;33;3;4;4;1;low;1609;Rechts;visual\obj371safetypin.gif;visual\obj322pipe.gif
AG1503;vollenkodiert;1;1;34;3;0;7;4;low;1250;Links;visual\obj379scarf.gif;visual\obj148eye.gif
AG1503;vollenkodiert;1;1;35;1;0;7;4;low;1062;Links;visual\obj078canoe.gif;visual\obj000circle.gif
AG1503;vollenkodiert;1;1;36;3;7;7;4;low;1782;Rechts;visual\obj365rope.gif;visual\obj248lipstick.gif
AG1503;vollenkodiert;1;1;37;1;4;4;1;low;3594;Rechts;visual\obj123desert.gif;visual\obj160flashlight.gif
AG1503;vollenkodiert;1;1;38;1;3;4;1;low;1858;Links;visual\obj238lemon.gif;visual\obj191brush.gif
AG1503;vollenkodiert;1;1;39;1;5;5;2;low;1733;Rechts;visual\obj206hinge.gif;visual\obj287onion.gif
AG1503;vollenkodiert;1;1;40;3;3;3;-1;low;2155;Rechts;visual\obj347rain.gif;visual\obj353rhinoceros.gif
AG1503;vollenkodiert;1;1;41;3;7;7;4;low;1593;Rechts;visual\obj033bathtub.gif;visual\obj129doll.gif
AG1503;vollenkodiert;1;1;42;1;6;6;3;low;2702;Rechts;visual\obj263mirror.gif;visual\obj019stroller.gif
AG1503;vollenkodiert;1;1;43;1;0;7;4;low;2358;Links;visual\obj225key.gif;visual\obj425stool.gif
AG1503;vollenkodiert;1;1;44;1;3;3;-1;low;1796;Rechts;visual\obj334porcupine.gif;visual\obj074can.gif
AG1503;vollenkodiert;1;1;45;3;2;5;2;low;1641;Links;visual\obj192hamburger.gif;visual\obj271motorcycle.gif
AG1503;vollenkodiert;1;1;46;1;0;7;4;low;1405;Links;visual\obj284nurse.gif;visual\obj036beaver.gif
AG1503;vollenkodiert;1;1;47;3;5;5;2;low;1671;Rechts;visual\obj057boy.gif;visual\obj231ladder.gif
AG1503;vollenkodiert;1;1;48;3;0;7;4;low;1937;Links;visual\obj154fire.gif;visual\obj428stroller.gif
AG1503;vollenkodiert;1;1;49;1;0;0;-4;low;2717;Rechts;visual\obj430suitcase.gif;visual\obj414spaghetti.gif
AG1503;vollenkodiert;1;1;50;1;0;7;4;low;1266;Links;visual\obj401skis.gif;visual\obj421statue.gif
AG1503;vollenkodiert;1;1;51;3;4;3;-1;low;1812;Links;visual\obj472truck.gif;visual\obj151feather.gif
AG1503;vollenkodiert;1;1;52;1;6;1;-3;low;3594;Links;visual\obj145elephant.gif;visual\obj458toilet.gif
AG1503;vollenkodiert;1;1;53;3;7;7;4;low;1828;Rechts;visual\obj450thermos.gif;visual\obj177ghost.gif
AG1503;vollenkodiert;1;1;54;1;3;3;-1;low;3672;Rechts;visual\obj364rooster.gif;visual\obj447tv.gif
AG1503;vollenkodiert;1;1;55;3;0;7;4;low;2719;Links;visual\obj516worm.gif;visual\obj335pot.gif
AG1503;vollenkodiert;1;1;56;3;7;7;4;low;1562;Rechts;visual\obj506whip.gif;visual\obj054bowl.gif
AG1503;vollenkodiert;1;1;57;1;4;4;1;low;2641;Rechts;visual\obj082carousel.gif;visual\obj399skeleton.gif
AG1503;vollenkodiert;1;1;58;1;4;3;-1;low;4530;Links;visual\obj355ring.gif;visual\obj193hammer.gif
AG1503;vollenkodiert;1;1;59;3;0;7;4;low;1453;Links;visual\obj351recordplayer.gif;visual\obj312pencilsharpener.gif
AG1503;vollenkodiert;1;1;60;1;2;2;-2;low;4282;Rechts;visual\obj499spiderweb.gif;visual\obj096cigarette.gif
AG1503;vollenkodiert;1;1;61;1;7;7;4;low;2046;Rechts;visual\obj102clown.gif;visual\obj048boat.gif
AG1503;vollenkodiert;1;1;62;3;7;7;4;low;828;Rechts;visual\obj449tent.gif;visual\obj410snowman.gif
AG1503;vollenkodiert;1;1;63;1;5;2;-2;low;2703;Links;visual\obj435sword.gif;visual\obj218ironingboard.gif
AG1503;vollenkodiert;1;1;64;1;7;7;4;low;2359;Rechts;visual\obj245lightswitch.gif;visual\obj131donkey.gif
AG1503;vollenkodiert;1;1;65;1;7;7;4;low;2046;Rechts;visual\obj133dragon.gif;visual\obj176genie.gif
AG1503;vollenkodiert;1;1;66;3;3;4;1;low;2594;Links;visual\obj474chest.gif;visual\obj000square.gif
AG1503;vollenkodiert;1;1;67;1;3;3;-1;low;2453;Rechts;visual\obj195hand.gif;visual\obj518yoyo.gif
AG1503;vollenkodiert;1;1;68;1;5;5;2;low;2453;Rechts;visual\obj247lips.gif;visual\obj120curtains.gif
AG1503;vollenkodiert;1;1;69;3;0;7;4;low;1469;Links;visual\obj147eskimo.gif;visual\obj051book.gif
AG1503;vollenkodiert;1;1;70;1;0;7;4;low;1516;Links;visual\obj087celery.gif;visual\obj500well.gif
AG1503;vollenkodiert;1;1;71;1;7;7;4;low;1578;Rechts;visual\obj360rockingchair.gif;visual\obj162floor.gif
AG1503;vollenkodiert;1;1;72;3;3;4;1;low;1796;Links;visual\obj050bone.gif;visual\obj122dentist.gif
AG1503;vollenkodiert;1;1;73;1;4;3;-1;low;3219;Links;visual\obj002acorn.gif;visual\obj001accordion.gif
AG1503;vollenkodiert;1;1;74;1;0;7;4;low;2641;Links;visual\obj400skirt.gif;visual\obj291package.gif
AG1503;vollenkodiert;1;1;75;1;0;7;4;low;1108;Links;visual\obj027bandaid.gif;visual\obj344raccoon.gif
AG1503;vollenkodiert;1;1;76;3;3;3;-1;low;2266;Rechts;visual\obj108cork.gif;visual\obj125diaper.gif
AG1503;vollenkodiert;1;1;77;3;5;5;2;low;1875;Rechts;visual\obj383screwdriver.gif;visual\obj511glass.gif
AG1503;vollenkodiert;1;1;78;1;7;7;4;low;1125;Rechts;visual\obj240letter.gif;visual\obj236leaf.gif
AG1503;vollenkodiert;1;1;79;1;4;3;-1;low;6358;Links;visual\obj155fireman.gif;visual\obj256man.gif
AG1503;vollenkodiert;1;1;80;1;4;3;-1;low;2234;Links;visual\obj006ant.gif;visual\obj266monkey.gif
AG1503;vollenkodiert;1;1;81;3;0;7;4;low;1766;Links;visual\obj196handcuffs.gif;visual\obj137drill.gif
AG1503;vollenkodiert;1;1;82;1;4;3;-1;low;2546;Links;visual\obj136dresser.gif;visual\obj520zipper.gif
AG1503;vollenkodiert;1;1;83;3;7;7;4;low;1921;Rechts;visual\obj336potato.gif;visual\obj424stocking.gif
AG1503;vollenkodiert;1;1;84;1;3;3;-1;low;2546;Rechts;visual\obj026banana.gif;visual\obj068button.gif
AG1503;vollenkodiert;1;1;85;3;7;7;4;low;1733;Rechts;visual\obj264mixer.gif;visual\obj217iron.gif
AG1503;vollenkodiert;1;1;86;1;3;4;1;low;3594;Links;visual\obj440taperecorder.gif;visual\obj330policeman.gif
AG1503;vollenkodiert;1;1;87;3;7;7;4;low;1905;Rechts;visual\obj144egg.gif;visual\obj304peach.gif
AG1503;vollenkodiert;1;1;88;1;4;4;1;low;2468;Rechts;visual\obj138drum.gif;visual\obj309pelican.gif
AG1503;vollenkodiert;1;1;89;3;3;4;1;low;4922;Links;visual\obj134drawer.gif;visual\obj276music.gif
AG1503;vollenkodiert;1;1;90;1;4;4;1;low;1921;Rechts;visual\obj368ruler.gif;visual\obj258mask.gif
AG1503;vollenkodiert;1;1;91;1;4;3;-1;low;3250;Links;visual\obj469tree.gif;visual\obj423stethoscope.gif
AG1503;vollenkodiert;1;1;92;1;7;7;4;low;1437;Rechts;visual\obj092chest.gif;visual\obj348rainbow.gif
AG1503;vollenkodiert;1;1;93;3;7;7;4;low;2343;Rechts;visual\obj203helicopter.gif;visual\obj216igloo.gif
AG1503;vollenkodiert;1;1;94;3;4;3;-1;low;1781;Links;visual\obj262microscope.gif;visual\obj490bricks.gif
AG1503;vollenkodiert;1;1;95;3;3;4;1;low;1671;Links;visual\obj229knight.gif;visual\obj388shark.gif
AG1503;vollenkodiert;1;1;96;3;0;7;4;low;1641;Links;visual\obj358rock.gif;visual\obj113crab.gif
AG1503;vollenkodiert;1;1;97;3;0;7;4;low;2469;Links;visual\obj018bottle.gif;visual\obj346radish.gif
AG1503;vollenkodiert;1;1;98;3;7;7;4;low;1842;Rechts;visual\obj419squirrel.gif;visual\obj223jumprope.gif
AG1503;vollenkodiert;1;1;99;1;6;6;3;low;2592;Rechts;visual\obj497wateringcan.gif;visual\obj237leg.gif
AG1503;vollenkodiert;1;1;100;3;7;7;4;low;1937;Rechts;visual\obj286octopus.gif;visual\obj246lion.gif
AG1503;vollenkodiert;1;1;101;1;4;3;-1;low;1969;Links;visual\obj126dinosaur.gif;visual\obj285nut.gif
AG1503;vollenkodiert;1;1;102;3;3;4;1;low;2828;Links;visual\obj504wheelbarrow.gif;visual\obj294paint.gif
AG1503;vollenkodiert;1;1;103;3;7;7;4;low;2171;Rechts;visual\obj052boot.gif;visual\obj280needle.gif
AG1503;vollenkodiert;1;1;104;3;7;7;4;low;1437;Rechts;visual\obj040bell.gif;visual\obj083carrot.gif
AG1503;vollenkodiert;1;1;105;1;7;7;4;low;1217;Rechts;visual\obj332popcorn.gif;visual\obj119cup.gif
AG1503;vollenkodiert;1;1;106;1;4;4;1;low;3218;Rechts;visual\obj354gun.gif;visual\obj158fishingpole.gif
AG1503;vollenkodiert;1;1;107;1;3;4;1;low;1921;Links;visual\obj100clothespin.gif;visual\obj282net.gif
AG1503;vollenkodiert;1;1;108;1;7;7;4;low;1625;Rechts;visual\obj004alligator.gif;visual\obj159flag.gif
AG1503;vollenkodiert;1;1;109;3;4;3;-1;low;2125;Links;visual\obj359rocket.gif;visual\obj352refrigerator.gif
AG1503;vollenkodiert;1;1;110;1;0;7;4;low;2733;Links;visual\obj016ax.gif;visual\obj207hippo.gif
AG1503;vollenkodiert;1;1;111;3;7;7;4;low;1405;Rechts;visual\obj508wig.gif;visual\obj320pineapple.gif
AG1503;vollenkodiert;1;1;112;1;0;7;4;low;2187;Links;visual\obj143earring.gif;visual\obj297panda.gif
AG1503;vollenkodiert;1;1;113;1;0;7;4;low;1609;Links;visual\obj090cheese.gif;visual\obj139duck.gif
AG1503;vollenkodiert;1;1;114;1;7;7;4;low;1719;Rechts;visual\obj022bag.gif;visual\obj205highchair.gif
AG1503;vollenkodiert;1;1;115;3;3;4;1;low;2000;Links;visual\obj039bug.gif;visual\obj076cane.gif
AG1503;vollenkodiert;1;1;116;1;0;7;4;low;1718;Links;visual\obj467train.gif;visual\obj465tractor.gif
AG1503;vollenkodiert;1;1;117;3;0;7;4;low;2327;Links;visual\obj250llama.gif;visual\obj241lettuce.gif
AG1503;vollenkodiert;1;1;118;3;4;4;1;low;2296;Rechts;visual\obj411sock.gif;visual\obj208hoe.gif
AG1503;vollenkodiert;1;1;119;3;7;7;4;low;1953;Rechts;visual\obj107cookie.gif;visual\obj044binoculars.gif
AG1503;vollenkodiert;1;1;120;1;0;7;4;low;2532;Links;visual\obj296pan.gif;visual\obj387sewingmachine.gif
AG1503;vollenkodiert;1;1;121;3;4;4;1;low;3092;Rechts;visual\obj260medal.gif;visual\obj445telephone.gif
AG1503;vollenkodiert;1;1;122;3;0;7;4;low;1625;Links;visual\obj370safe.gif;visual\obj201heart.gif
AG1503;vollenkodiert;1;1;123;3;4;4;1;low;2437;Rechts;visual\obj251lobster.gif;visual\obj007antlers.gif
AL2301;teilenkodiert;0;0;0;1;3;3;1;high;9984;Rechts;STÜTZE;BASS
AL2301;teilenkodiert;0;0;1;1;0;5;9;high;3921;Links;MANTEL;SAAT
AL2301;teilenkodiert;0;0;2;4;4;4;5;high;5812;Rechts;VORHANG;DATUM
AL2301;teilenkodiert;0;0;3;4;2;2;-1;high;2389;Rechts;VERKAUF;PROFIL
AL2301;teilenkodiert;0;0;4;0;2;2;0;high;8953;None;MATERIE;INDEX
AL2301;teilenkodiert;0;0;5;0;3;3;0;high;2858;None;WEISUNG;KLAMOTTE
AL2301;teilenkodiert;0;0;6;4;5;5;9;high;1953;Rechts;ADER;WINTER
AL2301;teilenkodiert;0;0;7;1;2;3;1;high;3110;Links;WURST;STOFF
AL2301;teilenkodiert;0;0;8;4;5;5;9;high;1641;Rechts;MATROSE;SCHANZE
AL2301;teilenkodiert;0;0;9;1;0;5;9;high;1766;Links;RADLER;PUPPE
AL2301;teilenkodiert;0;0;10;1;4;4;5;high;13266;Rechts;MOTORRAD;EXPORT
AL2301;teilenkodiert;0;0;11;4;5;5;9;high;1906;Rechts;LUPE;SENKUNG
AL2301;teilenkodiert;0;0;12;4;0;5;9;high;1469;Links;GONDEL;VERBAND
AL2301;teilenkodiert;0;0;13;1;2;3;1;high;4891;Links;HALTUNG;PASS
AL2301;teilenkodiert;0;0;14;1;5;5;9;high;3969;Rechts;TEXT;FISCH
AL2301;teilenkodiert;0;0;15;4;5;5;9;high;1219;Rechts;MODELL;ABBILD
AL2301;teilenkodiert;0;0;16;1;4;4;5;high;5656;Rechts;ANZEIGE;SCHNITT
AL2301;teilenkodiert;0;0;17;4;2;2;-1;high;3921;Rechts;HOLZ;STUDIO
AL2301;teilenkodiert;0;0;18;0;3;3;0;high;3108;None;TAXI;BEIN
AL2301;teilenkodiert;0;0;19;1;2;3;1;high;2312;Links;AUSNAHME;ZWILLING
AL2301;teilenkodiert;0;0;20;4;1;4;5;high;3125;Links;STEIN;PUFFER
AL2301;teilenkodiert;0;0;21;4;5;5;9;high;2016;Rechts;SYNTHESE;GUSS
AL2301;teilenkodiert;0;0;22;0;2;2;0;high;3703;None;PRIESTER;ABRUF
AL2301;teilenkodiert;0;0;23;1;3;3;1;high;4782;Rechts;EINTRAG;CHRIST
AL2301;teilenkodiert;0;0;24;4;0;5;9;high;1546;Links;NASE;HAUSHALT
AL2301;teilenkodiert;0;0;25;1;5;5;9;high;1843;Rechts;KAMEL;KRABBE
AL2301;teilenkodiert;0;0;26;1;5;0;-9;high;2562;Links;LENKER;ZIGARRE
AL2301;teilenkodiert;0;0;27;4;1;4;5;high;3546;Links;BASIS;FREQUENZ
AL2301;teilenkodiert;0;0;28;1;1;4;5;high;2109;Links;ANFRAGE;ALTAR
AL2301;teilenkodiert;0;0;29;4;3;2;-1;high;4875;Links;MEHRHEIT;KRONE
AL2301;teilenkodiert;0;0;30;1;5;5;9;high;1735;Rechts;KONGRESS;RADIUS
AL2301;teilenkodiert;0;0;31;1;0;0;-9;high;3843;Rechts;ARENA;AMATEUR
AL2301;teilenkodiert;0;0;32;1;2;3;1;high;3078;Links;MÖNCH;KREIDE
AL2301;teilenkodiert;0;0;33;4;0;5;9;high;1687;Links;ZUSCHLAG;ESEL
AL2301;teilenkodiert;0;0;34;4;5;5;9;high;3000;Rechts;KAMM;SCHNUR
AL2301;teilenkodiert;0;0;35;4;2;3;1;high;2125;Links;FACKEL;SCHRIFT
AL2301;teilenkodiert;0;0;36;1;2;2;-1;high;2359;Rechts;COMPUTER;PRINZIP
AL2301;teilenkodiert;0;0;37;1;3;2;-1;high;4281;Links;BLUSE;SZENE
AL2301;teilenkodiert;0;0;38;1;2;2;-1;high;6110;Rechts;PALETTE;HECKE
AL2301;teilenkodiert;0;0;39;4;1;4;5;high;2859;Links;KUPPE;GALA
AL2301;teilenkodiert;0;0;40;4;5;5;9;high;1984;Rechts;SCHLAMM;TEICH
AL2301;teilenkodiert;0;0;41;1;3;2;-1;high;3264;Links;TEPPICH;ZEILE
AL2301;teilenkodiert;0;0;42;1;5;5;9;high;2671;Rechts;GESCHIRR;TAGUNG
AL2301;teilenkodiert;0;0;43;4;0;5;9;high;1641;Links;PULT;KOFFER
AL2301;teilenkodiert;0;0;44;1;3;3;1;high;3155;Rechts;ANHÄNGER;ZIFFER
AL2301;teilenkodiert;0;0;45;0;2;2;0;high;2937;None;ERHÖHUNG;AKTEUR
AL2301;teilenkodiert;0;0;46;1;2;3;1;high;3719;Links;HERD;HÜTTE
AL2301;teilenkodiert;0;0;47;0;4;4;0;high;3062;None;ZEICHEN;GEHIRN
AL2301;teilenkodiert;0;0;48;4;5;5;9;high;3266;Rechts;LAGER;SEKT
AL2301;teilenkodiert;0;0;49;4;3;2;-1;high;6375;Links;GLAS;TARIF
AL2301;teilenkodiert;0;0;50;0;0;0;0;high;3422;None;BESEN;EINGABE
AL2301;teilenkodiert;0;0;51;1;0;5;9;high;1594;Links;SYSTEM;SÄULE
AL2301;teilenkodiert;0;0;52;0;3;3;0;high;2266;None;KABEL;WAHRUNG
AL2301;teilenkodiert;0;0;53;4;5;5;9;high;4953;Rechts;SEKUNDE;AUFLAGE
AL2301;teilenkodiert;0;0;54;0;3;3;0;high;2828;None;FRAGMENT;SERIE
AL2301;teilenkodiert;0;0;55;4;3;3;1;high;3046;Rechts;BEDARF;BUDE
AL2301;teilenkodiert;0;0;56;1;3;3;1;high;2296;Rechts;ANLASS;BECHER
AL2301;teilenkodiert;0;0;57;4;0;5;9;high;1687;Links;STADIUM;NETZ
AL2301;teilenkodiert;0;0;58;4;5;5;9;high;3139;Rechts;PFLAUME;ROHR
AL2301;teilenkodiert;0;0;59;1;0;5;9;high;2484;Links;LABOR;STROH
AL2301;teilenkodiert;0;0;60;0;1;1;0;high;3766;None;SCHÄDEL;UMSTAND
AL2301;teilenkodiert;0;0;61;0;2;2;0;high;7406;None;STROM;MAGNET
AL2301;teilenkodiert;0;0;62;0;2;2;0;high;5281;None;AUSWAHL;VERZICHT
AL2301;teilenkodiert;0;0;63;4;4;4;5;high;2078;Rechts;AKTIE;VOLK
AL2301;teilenkodiert;0;0;64;1;5;5;9;high;1828;Rechts;KÜBEL;TREND
AL2301;teilenkodiert;0;0;65;4;5;5;9;high;1657;Rechts;RAUPE;BUCHUNG
AL2301;teilenkodiert;0;0;66;1;3;2;-1;high;4297;Links;GLOCKE;BISCHOF
AL2301;teilenkodiert;0;0;67;1;3;3;1;high;4467;Rechts;GELTUNG;ZIPFEL
AL2301;teilenkodiert;0;0;68;4;0;5;9;high;1702;Links;BLEI;TASTE
AL2301;teilenkodiert;0;0;69;1;3;2;-1;high;3094;Links;THEKE;GALERIE
AL2301;teilenkodiert;0;0;70;0;2;2;0;high;1953;None;SCHEITEL;FAHRT
AL2301;teilenkodiert;0;0;71;1;3;3;1;high;6437;Rechts;GEBET;STIRN
AL2301;teilenkodiert;0;0;72;0;3;3;0;high;1703;None;GUNST;REITER
AL2301;teilenkodiert;0;0;73;0;3;3;0;high;1780;None;GRAD;HANDWERK
AL2301;teilenkodiert;0;0;74;4;2;3;1;high;4312;Links;MÜTZE;WACHE
AL2301;teilenkodiert;0;0;75;4;0;5;9;high;1421;Links;HUHN;GEREDE
AL2301;teilenkodiert;0;0;76;0;0;0;0;high;3969;None;REPTIL;TAFEL
AL2301;teilenkodiert;0;0;77;4;5;5;9;high;1937;Rechts;KURIER;VARIANTE
AL2301;teilenkodiert;0;0;78;1;5;5;9;high;1342;Rechts;PRISE;TECHNIK
AL2301;teilenkodiert;0;0;79;4;0;5;9;high;1672;Links;HEBEL;SAMMLUNG
AL2301;teilenkodiert;0;0;80;1;2;3;1;high;3984;Links;FASSUNG;MANDANT
AL2301;teilenkodiert;0;0;81;4;0;5;9;high;1281;Links;PATRONE;GEMÜT
AL2301;teilenkodiert;0;0;82;4;0;5;9;high;1234;Links;HOCHHAUS;PRAXIS
AL2301;teilenkodiert;0;0;83;1;0;5;9;high;7703;Links;KERAMIK;ÜBUNG
AL2301;teilenkodiert;0;0;84;4;5;5;9;high;1625;Rechts;TABELLE;BOOT
AL2301;teilenkodiert;0;0;85;1;1;4;5;high;2140;Links;BAUER;SPRUCH
AL2301;teilenkodiert;0;0;86;0;4;4;0;high;10140;None;DIREKTOR;BEUTEL
AL2301;teilenkodiert;0;0;87;1;3;3;1;high;2203;Rechts;UMGEBUNG;PILLE
AL2301;teilenkodiert;0;0;88;4;1;4;5;high;3264;Links;FAHRZEUG;SEHNE
AL2301;teilenkodiert;0;0;89;0;3;3;0;high;2171;None;SITZUNG;MOLEKÜL
AL2301;teilenkodiert;0;1;0;4;2;3;1;low;6327;Links;SYMPTOM;DAMPF
AL2301;teilenkodiert;0;1;1;1;0;5;3;low;8953;Links;STOCK;WIRT
AL2301;teilenkodiert;0;1;2;0;0;0;0;low;2250;None;NEUZEIT;MÖBEL
AL2301;teilenkodiert;0;1;3;1;2;3;1;low;1859;Links;FARM;LEHNE
AL2301;teilenkodiert;0;1;4;4;5;5;3;low;1750;Rechts;STUHL;TAKT
AL2301;teilenkodiert;0;1;5;4;5;5;3;low;3032;Rechts;PFAHL;PIRAT
AL2301;teilenkodiert;0;1;6;1;5;0;-3;low;1375;Links;ERHEBUNG;RUDER
AL2301;teilenkodiert;0;1;7;4;0;5;3;low;1719;Links;VERTRAG;FISCHER
AL2301;teilenkodiert;0;1;8;4;0;5;3;low;1703;Links;WIRKUNG;SPATEN
AL2301;teilenkodiert;0;1;9;4;3;3;1;low;2515;Rechts;KORN;APOTHEKE
AL2301;teilenkodiert;0;1;10;1;3;3;1;low;5203;Rechts;PFEIL;MALER
AL2301;teilenkodiert;0;1;11;1;5;5;3;low;3735;Rechts;HÜRDE;RICHTER
AL2301;teilenkodiert;0;1;12;1;3;3;1;low;7125;Rechts;ENTWURF;ERHALT
AL2301;teilenkodiert;0;1;13;4;5;5;3;low;1359;Rechts;VORSTAND;GARDE
AL2301;teilenkodiert;0;1;14;4;0;5;3;low;2671;Links;MOTOR;SITZ
AL2301;teilenkodiert;0;1;15;1;0;5;3;low;3640;Links;ZWECK;BIER
AL2301;teilenkodiert;0;1;16;1;3;3;1;low;6750;Rechts;SYMBOL;HÖRER
AL2301;teilenkodiert;0;1;17;4;0;5;3;low;2078;Links;PILZ;ZETTEL
AL2301;teilenkodiert;0;1;18;0;1;1;0;low;2578;None;DING;GEWICHT
AL2301;teilenkodiert;0;1;19;1;5;5;3;low;1858;Rechts;DRESSUR;BECKEN
AL2301;teilenkodiert;0;1;20;0;2;2;0;low;4266;None;MAPPE;ZANGE
AL2301;teilenkodiert;0;1;21;1;3;3;1;low;5562;Rechts;EINHEIT;FELD
AL2301;teilenkodiert;0;1;22;4;0;5;3;low;1391;Links;APPARAT;BRONZE
AL2301;teilenkodiert;0;1;23;1;4;1;-2;low;5608;Links;ÄNDERUNG;FORMAT
AL2301;teilenkodiert;0;1;24;1;2;3;1;low;2280;Links;ZEUG;DRAHT
AL2301;teilenkodiert;0;1;25;0;3;3;0;low;4250;None;KELLER;REVISION
AL2301;teilenkodiert;0;1;26;4;0;5;3;low;1405;Links;AUSWEIS;FÜRST
